"","pid","task","resp","start","version","parA","rt","time_elapsed","sid","block","jitterX","jitterY","sub","trial","y"
"151","55a5f19bfdf99b28b5340d00","zol",-0.43,-0.67,2,NA,8000,2064675,"64e50290df62995c3043a679",1,26,-26,2,1,0.43
"152","55a5f19bfdf99b28b5340d00","zol",-0.78,0.38,2,NA,6486,2071167,"64e50290df62995c3043a679",1,21,-1,2,2,0.78
"153","55a5f19bfdf99b28b5340d00","zol",-0.42,0.02,2,NA,8000,2079179,"64e50290df62995c3043a679",1,-28,-24,2,3,0.42
"154","55a5f19bfdf99b28b5340d00","zol",-0.36,-0.14,2,NA,7695,2086896,"64e50290df62995c3043a679",1,-28,-10,2,4,0.36
"155","55a5f19bfdf99b28b5340d00","zol",-0.32,-0.18,2,NA,8000,2094908,"64e50290df62995c3043a679",1,29,-6,2,5,0.32
"156","55a5f19bfdf99b28b5340d00","zol",-0.14,-0.36,2,NA,8000,2102919,"64e50290df62995c3043a679",1,20,1,2,6,0.14
"157","55a5f19bfdf99b28b5340d00","zol",-0.35,-0.55,2,NA,7533,2110474,"64e50290df62995c3043a679",1,-3,4,2,7,0.35
"158","55a5f19bfdf99b28b5340d00","zol",-0.58,0.48,2,NA,8000,2118490,"64e50290df62995c3043a679",1,15,-25,2,8,0.58
"159","55a5f19bfdf99b28b5340d00","zol",-0.8,0.2,2,NA,8000,2126496,"64e50290df62995c3043a679",1,14,-6,2,9,0.8
"160","55a5f19bfdf99b28b5340d00","zol",-0.46,-0.04,2,NA,8000,2134507,"64e50290df62995c3043a679",1,-18,-17,2,10,0.46
"161","55a5f19bfdf99b28b5340d00","zol",-0.67,-0.23,2,NA,8000,2142520,"64e50290df62995c3043a679",1,-11,17,2,11,0.67
"162","55a5f19bfdf99b28b5340d00","zol",-0.45,-0.55,2,NA,6837,2149363,"64e50290df62995c3043a679",1,-23,25,2,12,0.45
"163","55a5f19bfdf99b28b5340d00","zol",-0.45,0.75,2,NA,8000,2157375,"64e50290df62995c3043a679",1,4,-4,2,13,0.45
"164","55a5f19bfdf99b28b5340d00","zol",-0.24,0.04,2,NA,6289,2163687,"64e50290df62995c3043a679",1,-7,-24,2,14,0.24
"165","55a5f19bfdf99b28b5340d00","zol",-0.36,-0.14,2,NA,6968,2170673,"64e50290df62995c3043a679",1,-4,-18,2,15,0.36
"166","55a5f19bfdf99b28b5340d00","pz",26,27,2,26,6746,2255901,"64e50290df62995c3043a679",1,NA,NA,2,1,0
"167","55a5f19bfdf99b28b5340d00","pz",41,50,2,44,4320,2260228,"64e50290df62995c3043a679",1,NA,NA,2,2,0.0681818181818182
"168","55a5f19bfdf99b28b5340d00","pz",43,55,2,46,5710,2265951,"64e50290df62995c3043a679",1,NA,NA,2,3,0.0652173913043478
"169","55a5f19bfdf99b28b5340d00","pz",29,60,2,28,8000,2273957,"64e50290df62995c3043a679",1,NA,NA,2,4,-0.0357142857142857
"170","55a5f19bfdf99b28b5340d00","pz",49,51,2,50,8000,2281965,"64e50290df62995c3043a679",1,NA,NA,2,5,0.02
"171","55a5f19bfdf99b28b5340d00","pz",42,40,2,42,6859,2288830,"64e50290df62995c3043a679",1,NA,NA,2,6,0
"172","55a5f19bfdf99b28b5340d00","pz",52,42,2,53,5838,2294675,"64e50290df62995c3043a679",1,NA,NA,2,7,0.0188679245283019
"173","55a5f19bfdf99b28b5340d00","pz",39,54,2,39,5542,2300223,"64e50290df62995c3043a679",1,NA,NA,2,8,0
"174","55a5f19bfdf99b28b5340d00","pz",34,54,2,33,5726,2305957,"64e50290df62995c3043a679",1,NA,NA,2,9,-0.0303030303030303
"175","55a5f19bfdf99b28b5340d00","pz",61,30,2,59,7339,2313303,"64e50290df62995c3043a679",1,NA,NA,2,10,-0.0338983050847458
"176","55a5f19bfdf99b28b5340d00","pz",31,41,2,31,2918,2316228,"64e50290df62995c3043a679",1,NA,NA,2,11,0
"177","55a5f19bfdf99b28b5340d00","pz",34,48,2,32,3366,2319604,"64e50290df62995c3043a679",1,NA,NA,2,12,-0.0625
"178","55a5f19bfdf99b28b5340d00","pz",60,52,2,58,6049,2325661,"64e50290df62995c3043a679",1,NA,NA,2,13,-0.0344827586206897
"179","55a5f19bfdf99b28b5340d00","pz",49,28,2,52,5726,2331398,"64e50290df62995c3043a679",1,NA,NA,2,14,0.0576923076923077
"180","55a5f19bfdf99b28b5340d00","pz",42,22,2,42,4168,2335571,"64e50290df62995c3043a679",1,NA,NA,2,15,0
"181","55a5f19bfdf99b28b5340d00","eb",38,27,1,37,3520,2376450,"64e50290df62995c3043a679",1,0,0,2,1,-0.027027027027027
"182","55a5f19bfdf99b28b5340d00","eb",36,32,1,36,3588,2380043,"64e50290df62995c3043a679",1,0,0,2,2,0
"183","55a5f19bfdf99b28b5340d00","eb",29,40,1,28,6449,2386505,"64e50290df62995c3043a679",1,0,0,2,3,-0.0357142857142857
"184","55a5f19bfdf99b28b5340d00","eb",34,25,1,33,3797,2390306,"64e50290df62995c3043a679",1,0,0,2,4,-0.0303030303030303
"185","55a5f19bfdf99b28b5340d00","eb",37,40,1,39,5948,2396266,"64e50290df62995c3043a679",1,0,0,2,5,0.0512820512820513
"186","55a5f19bfdf99b28b5340d00","eb",25,26,1,26,3187,2399460,"64e50290df62995c3043a679",1,0,0,2,6,0.0384615384615385
"187","55a5f19bfdf99b28b5340d00","eb",33,54,1,35,5376,2404843,"64e50290df62995c3043a679",1,0,0,2,7,0.0571428571428571
"188","55a5f19bfdf99b28b5340d00","eb",33,33,1,34,913,2405761,"64e50290df62995c3043a679",1,0,0,2,8,0.0294117647058824
"189","55a5f19bfdf99b28b5340d00","eb",40,26,1,40,4577,2410342,"64e50290df62995c3043a679",1,0,0,2,9,0
"190","55a5f19bfdf99b28b5340d00","eb",25,28,1,25,4245,2414590,"64e50290df62995c3043a679",1,0,0,2,10,0
"191","55a5f19bfdf99b28b5340d00","eb",42,26,1,42,4405,2419004,"64e50290df62995c3043a679",1,0,0,2,11,0
"192","55a5f19bfdf99b28b5340d00","eb",47,51,1,50,3478,2422489,"64e50290df62995c3043a679",1,0,0,2,12,0.06
"193","55a5f19bfdf99b28b5340d00","eb",38,45,1,41,4973,2427471,"64e50290df62995c3043a679",1,0,0,2,13,0.0731707317073171
"194","55a5f19bfdf99b28b5340d00","eb",40,29,1,40,2756,2430238,"64e50290df62995c3043a679",1,0,0,2,14,0
"195","55a5f19bfdf99b28b5340d00","eb",44,29,1,43,3601,2433846,"64e50290df62995c3043a679",1,0,0,2,15,-0.0232558139534884
"196","55a5f19bfdf99b28b5340d00","pog",184,214,1,165,4179,2467497,"64e50290df62995c3043a679",1,0,0,2,1,19
"197","55a5f19bfdf99b28b5340d00","pog",145,185,1,120,8000,2475502,"64e50290df62995c3043a679",1,0,0,2,2,25
"198","55a5f19bfdf99b28b5340d00","pog",148,124,1,133,4863,2480376,"64e50290df62995c3043a679",1,0,0,2,3,15
"199","55a5f19bfdf99b28b5340d00","pog",157,151,1,142,4485,2484867,"64e50290df62995c3043a679",1,0,0,2,4,15
"200","55a5f19bfdf99b28b5340d00","pog",195,175,1,184,5016,2489895,"64e50290df62995c3043a679",1,0,0,2,5,11
"201","55a5f19bfdf99b28b5340d00","pog",184,128,1,166,4335,2494237,"64e50290df62995c3043a679",1,0,0,2,6,18
"202","55a5f19bfdf99b28b5340d00","pog",211,117,1,197,6231,2500473,"64e50290df62995c3043a679",1,0,0,2,7,14
"203","55a5f19bfdf99b28b5340d00","pog",214,188,1,196,2322,2502801,"64e50290df62995c3043a679",1,0,0,2,8,18
"204","55a5f19bfdf99b28b5340d00","pog",188,150,1,174,3020,2505826,"64e50290df62995c3043a679",1,0,0,2,9,14
"205","55a5f19bfdf99b28b5340d00","pog",145,219,1,124,5984,2511822,"64e50290df62995c3043a679",1,0,0,2,10,21
"206","55a5f19bfdf99b28b5340d00","pog",210,136,1,190,3056,2514883,"64e50290df62995c3043a679",1,0,0,2,11,20
"207","55a5f19bfdf99b28b5340d00","pog",161,195,1,139,3954,2518843,"64e50290df62995c3043a679",1,0,0,2,12,22
"208","55a5f19bfdf99b28b5340d00","pog",165,105,1,147,2537,2521391,"64e50290df62995c3043a679",1,0,0,2,13,18
"209","55a5f19bfdf99b28b5340d00","pog",178,150,1,159,3831,2525230,"64e50290df62995c3043a679",1,0,0,2,14,19
"210","55a5f19bfdf99b28b5340d00","pog",181,145,1,165,2518,2527753,"64e50290df62995c3043a679",1,0,0,2,15,16
"211","55a5f19bfdf99b28b5340d00","br",-10,-13,1,239,5885,2547067,"64e50290df62995c3043a679",1,29,4,2,1,0.0418410041841004
"212","55a5f19bfdf99b28b5340d00","br",-10,-7,1,203,2760,2549839,"64e50290df62995c3043a679",1,-16,-25,2,2,0.0492610837438424
"213","55a5f19bfdf99b28b5340d00","br",-8,-9,1,201,3676,2553522,"64e50290df62995c3043a679",1,0,-16,2,3,0.0398009950248756
"214","55a5f19bfdf99b28b5340d00","br",-7,11,1,249,4110,2557639,"64e50290df62995c3043a679",1,24,19,2,4,0.0281124497991968
"215","55a5f19bfdf99b28b5340d00","br",-6,29,1,220,3258,2560904,"64e50290df62995c3043a679",1,7,-7,2,5,0.0272727272727273
"216","55a5f19bfdf99b28b5340d00","br",-8,8,1,227,2206,2563117,"64e50290df62995c3043a679",1,-24,-16,2,6,0.0352422907488987
"217","55a5f19bfdf99b28b5340d00","br",-6,-2,1,209,3482,2566609,"64e50290df62995c3043a679",1,9,24,2,7,0.0287081339712919
"218","55a5f19bfdf99b28b5340d00","br",-11,8,1,228,3355,2569977,"64e50290df62995c3043a679",1,20,-6,2,8,0.0482456140350877
"219","55a5f19bfdf99b28b5340d00","br",-10,29,1,239,4747,2574737,"64e50290df62995c3043a679",1,-13,-29,2,9,0.0418410041841004
"220","55a5f19bfdf99b28b5340d00","br",-8,-6,1,249,2299,2577043,"64e50290df62995c3043a679",1,-12,-11,2,10,0.0321285140562249
"221","55a5f19bfdf99b28b5340d00","br",-6,-12,1,283,4219,2581273,"64e50290df62995c3043a679",1,-21,19,2,11,0.0212014134275618
"222","55a5f19bfdf99b28b5340d00","br",-6,8,1,273,2526,2583811,"64e50290df62995c3043a679",1,-16,-29,2,12,0.021978021978022
"223","55a5f19bfdf99b28b5340d00","br",-6,12,1,284,1827,2585648,"64e50290df62995c3043a679",1,-4,21,2,13,0.0211267605633803
"224","55a5f19bfdf99b28b5340d00","br",-13,1,1,285,2206,2587860,"64e50290df62995c3043a679",1,-13,14,2,14,0.0456140350877193
"225","55a5f19bfdf99b28b5340d00","br",-7,24,1,237,3451,2591321,"64e50290df62995c3043a679",1,16,-7,2,15,0.029535864978903
"226","55a5f19bfdf99b28b5340d00","pz",51,46,1,45,2710,2626229,"64e50290df62995c3043a679",2,NA,NA,2,1,0.133333333333333
"227","55a5f19bfdf99b28b5340d00","pz",27,60,1,22,5402,2631642,"64e50290df62995c3043a679",2,NA,NA,2,2,0.227272727272727
"228","55a5f19bfdf99b28b5340d00","pz",59,59,1,49,4651,2636305,"64e50290df62995c3043a679",2,NA,NA,2,3,0.204081632653061
"229","55a5f19bfdf99b28b5340d00","pz",42,23,1,39,4855,2641167,"64e50290df62995c3043a679",2,NA,NA,2,4,0.0769230769230769
"230","55a5f19bfdf99b28b5340d00","pz",50,58,1,44,5063,2646236,"64e50290df62995c3043a679",2,NA,NA,2,5,0.136363636363636
"231","55a5f19bfdf99b28b5340d00","pz",61,44,1,57,3514,2649763,"64e50290df62995c3043a679",2,NA,NA,2,6,0.0701754385964912
"232","55a5f19bfdf99b28b5340d00","pz",59,41,1,50,3156,2652926,"64e50290df62995c3043a679",2,NA,NA,2,7,0.18
"233","55a5f19bfdf99b28b5340d00","pz",53,26,1,49,4347,2657283,"64e50290df62995c3043a679",2,NA,NA,2,8,0.0816326530612245
"234","55a5f19bfdf99b28b5340d00","pz",26,42,1,25,7772,2665067,"64e50290df62995c3043a679",2,NA,NA,2,9,0.04
"235","55a5f19bfdf99b28b5340d00","pz",34,57,1,30,5536,2670615,"64e50290df62995c3043a679",2,NA,NA,2,10,0.133333333333333
"236","55a5f19bfdf99b28b5340d00","pz",25,23,1,22,5594,2676223,"64e50290df62995c3043a679",2,NA,NA,2,11,0.136363636363636
"237","55a5f19bfdf99b28b5340d00","pz",59,47,1,51,3174,2679403,"64e50290df62995c3043a679",2,NA,NA,2,12,0.156862745098039
"238","55a5f19bfdf99b28b5340d00","pz",22,25,1,20,3492,2682906,"64e50290df62995c3043a679",2,NA,NA,2,13,0.1
"239","55a5f19bfdf99b28b5340d00","pz",26,20,1,25,4037,2686950,"64e50290df62995c3043a679",2,NA,NA,2,14,0.04
"240","55a5f19bfdf99b28b5340d00","pz",53,39,1,47,3981,2690941,"64e50290df62995c3043a679",2,NA,NA,2,15,0.127659574468085
"241","55a5f19bfdf99b28b5340d00","eb",39,25,2,34,3310,2721409,"64e50290df62995c3043a679",2,0,0,2,1,0.147058823529412
"242","55a5f19bfdf99b28b5340d00","eb",40,53,2,39,4241,2725654,"64e50290df62995c3043a679",2,0,0,2,2,0.0256410256410256
"243","55a5f19bfdf99b28b5340d00","eb",39,52,2,37,4252,2729915,"64e50290df62995c3043a679",2,0,0,2,3,0.0540540540540541
"244","55a5f19bfdf99b28b5340d00","eb",30,25,2,27,3373,2733292,"64e50290df62995c3043a679",2,0,0,2,4,0.111111111111111
"245","55a5f19bfdf99b28b5340d00","eb",50,41,2,49,4453,2737749,"64e50290df62995c3043a679",2,0,0,2,5,0.0204081632653061
"246","55a5f19bfdf99b28b5340d00","eb",32,52,2,31,5398,2743155,"64e50290df62995c3043a679",2,0,0,2,6,0.032258064516129
"247","55a5f19bfdf99b28b5340d00","eb",26,39,2,24,5687,2748847,"64e50290df62995c3043a679",2,0,0,2,7,0.0833333333333333
"248","55a5f19bfdf99b28b5340d00","eb",42,47,2,39,5879,2754738,"64e50290df62995c3043a679",2,0,0,2,8,0.0769230769230769
"249","55a5f19bfdf99b28b5340d00","eb",34,43,2,32,2963,2757708,"64e50290df62995c3043a679",2,0,0,2,9,0.0625
"250","55a5f19bfdf99b28b5340d00","eb",45,36,2,43,4176,2761887,"64e50290df62995c3043a679",2,0,0,2,10,0.0465116279069767
"251","55a5f19bfdf99b28b5340d00","eb",48,30,2,43,3608,2765499,"64e50290df62995c3043a679",2,0,0,2,11,0.116279069767442
"252","55a5f19bfdf99b28b5340d00","eb",52,43,2,49,3990,2769496,"64e50290df62995c3043a679",2,0,0,2,12,0.0612244897959184
"253","55a5f19bfdf99b28b5340d00","eb",44,30,2,39,3675,2773178,"64e50290df62995c3043a679",2,0,0,2,13,0.128205128205128
"254","55a5f19bfdf99b28b5340d00","eb",41,31,2,39,3305,2776488,"64e50290df62995c3043a679",2,0,0,2,14,0.0512820512820513
"255","55a5f19bfdf99b28b5340d00","eb",35,39,2,34,3334,2779833,"64e50290df62995c3043a679",2,0,0,2,15,0.0294117647058824
"256","55a5f19bfdf99b28b5340d00","br",18,-3,2,273,3311,2789575,"64e50290df62995c3043a679",2,11,-13,2,1,0.0659340659340659
"258","55a5f19bfdf99b28b5340d00","br",15,-28,2,261,2688,2792870,"64e50290df62995c3043a679",2,-25,-13,2,3,0.0574712643678161
"259","55a5f19bfdf99b28b5340d00","br",18,23,2,242,2138,2795022,"64e50290df62995c3043a679",2,20,26,2,4,0.0743801652892562
"260","55a5f19bfdf99b28b5340d00","br",13,30,2,214,5476,2800502,"64e50290df62995c3043a679",2,-18,5,2,5,0.0607476635514019
"261","55a5f19bfdf99b28b5340d00","br",14,-26,2,239,4249,2804762,"64e50290df62995c3043a679",2,-23,19,2,6,0.0585774058577406
"262","55a5f19bfdf99b28b5340d00","br",12,-27,2,225,3635,2808409,"64e50290df62995c3043a679",2,-30,19,2,7,0.0533333333333333
"263","55a5f19bfdf99b28b5340d00","br",12,-12,2,227,2448,2810864,"64e50290df62995c3043a679",2,29,5,2,8,0.052863436123348
"264","55a5f19bfdf99b28b5340d00","br",15,-4,2,212,1783,2812675,"64e50290df62995c3043a679",2,4,-14,2,9,0.0707547169811321
"265","55a5f19bfdf99b28b5340d00","br",13,-30,2,267,2894,2815575,"64e50290df62995c3043a679",2,-4,-15,2,10,0.048689138576779
"266","55a5f19bfdf99b28b5340d00","br",13,25,2,247,2586,2818167,"64e50290df62995c3043a679",2,-22,-5,2,11,0.0526315789473684
"267","55a5f19bfdf99b28b5340d00","br",12,28,2,222,4323,2822500,"64e50290df62995c3043a679",2,9,-10,2,12,0.0540540540540541
"268","55a5f19bfdf99b28b5340d00","br",11,26,2,231,2949,2825456,"64e50290df62995c3043a679",2,-6,-16,2,13,0.0476190476190476
"269","55a5f19bfdf99b28b5340d00","br",20,-24,2,281,3073,2828536,"64e50290df62995c3043a679",2,-9,7,2,14,0.0711743772241993
"270","55a5f19bfdf99b28b5340d00","br",13,-18,2,266,2537,2831081,"64e50290df62995c3043a679",2,11,25,2,15,0.0488721804511278
"271","55a5f19bfdf99b28b5340d00","pog",315,289,2,339,3009,2846276,"64e50290df62995c3043a679",2,0,0,2,1,24
"272","55a5f19bfdf99b28b5340d00","pog",293,379,2,307,3061,2849343,"64e50290df62995c3043a679",2,0,0,2,2,14
"273","55a5f19bfdf99b28b5340d00","pog",312,314,2,331,3494,2852843,"64e50290df62995c3043a679",2,0,0,2,3,19
"274","55a5f19bfdf99b28b5340d00","pog",303,365,2,309,2798,2855646,"64e50290df62995c3043a679",2,0,0,2,4,6
"275","55a5f19bfdf99b28b5340d00","pog",289,293,2,304,2137,2857789,"64e50290df62995c3043a679",2,0,0,2,5,15
"276","55a5f19bfdf99b28b5340d00","pog",309,353,2,327,2783,2860578,"64e50290df62995c3043a679",2,0,0,2,6,18
"277","55a5f19bfdf99b28b5340d00","pog",298,390,2,303,3267,2863850,"64e50290df62995c3043a679",2,0,0,2,7,5
"278","55a5f19bfdf99b28b5340d00","pog",316,282,2,338,6969,2870832,"64e50290df62995c3043a679",2,0,0,2,8,22
"279","55a5f19bfdf99b28b5340d00","pog",357,329,2,380,2436,2873280,"64e50290df62995c3043a679",2,0,0,2,9,23
"280","55a5f19bfdf99b28b5340d00","pog",304,352,2,318,2937,2876228,"64e50290df62995c3043a679",2,0,0,2,10,14
"281","55a5f19bfdf99b28b5340d00","pog",354,382,2,371,2313,2878553,"64e50290df62995c3043a679",2,0,0,2,11,17
"282","55a5f19bfdf99b28b5340d00","pog",349,343,2,374,1399,2879957,"64e50290df62995c3043a679",2,0,0,2,12,25
"283","55a5f19bfdf99b28b5340d00","pog",325,333,2,335,2038,2882001,"64e50290df62995c3043a679",2,0,0,2,13,10
"284","55a5f19bfdf99b28b5340d00","pog",361,365,2,371,2194,2884201,"64e50290df62995c3043a679",2,0,0,2,14,10
"285","55a5f19bfdf99b28b5340d00","pog",312,318,2,325,2343,2886552,"64e50290df62995c3043a679",2,0,0,2,15,13
"286","55a5f19bfdf99b28b5340d00","zol",0.29,0.31,1,NA,5050,2916183,"64e50290df62995c3043a679",2,-3,14,2,1,0.29
"288","55a5f19bfdf99b28b5340d00","zol",0.31,-0.21,1,NA,5839,2922092,"64e50290df62995c3043a679",2,27,-24,2,3,0.31
"289","55a5f19bfdf99b28b5340d00","zol",0.19,-0.29,1,NA,6675,2928785,"64e50290df62995c3043a679",2,-6,22,2,4,0.19
"290","55a5f19bfdf99b28b5340d00","zol",0.19,-0.09,1,NA,2703,2931496,"64e50290df62995c3043a679",2,-8,24,2,5,0.19
"291","55a5f19bfdf99b28b5340d00","zol",0.1,-0.4,1,NA,5363,2936876,"64e50290df62995c3043a679",2,-7,-9,2,6,0.1
"292","55a5f19bfdf99b28b5340d00","zol",0.32,-0.22,1,NA,2393,2939287,"64e50290df62995c3043a679",2,-24,-6,2,7,0.32
"293","55a5f19bfdf99b28b5340d00","zol",0.3,-0.7,1,NA,6831,2946130,"64e50290df62995c3043a679",2,25,-23,2,8,0.3
"294","55a5f19bfdf99b28b5340d00","zol",0.3,0.4,1,NA,5105,2951253,"64e50290df62995c3043a679",2,7,-30,2,9,0.3
"295","55a5f19bfdf99b28b5340d00","zol",0.29,-0.69,1,NA,7809,2959082,"64e50290df62995c3043a679",2,-3,18,2,10,0.29
"296","55a5f19bfdf99b28b5340d00","zol",0.0500000000000001,-0.45,1,NA,7936,2967029,"64e50290df62995c3043a679",2,-12,-19,2,11,0.0500000000000001
"297","55a5f19bfdf99b28b5340d00","zol",0.08,-0.38,1,NA,4385,2971433,"64e50290df62995c3043a679",2,-22,27,2,12,0.08
"298","55a5f19bfdf99b28b5340d00","zol",0.2,-0.5,1,NA,4489,2975927,"64e50290df62995c3043a679",2,-29,-5,2,13,0.2
"299","55a5f19bfdf99b28b5340d00","zol",0.11,-0.31,1,NA,2795,2978727,"64e50290df62995c3043a679",2,-22,-8,2,14,0.11
"300","55a5f19bfdf99b28b5340d00","zol",-0.04,-0.26,1,NA,5955,2984692,"64e50290df62995c3043a679",2,19,-21,2,15,-0.04
"301","55b508f4fdf99b1c26c21c69","pz",24,45,1,22,6434,195152,"64e50c10068e51e8562a66d7",1,NA,NA,3,1,0.0909090909090909
"302","55b508f4fdf99b1c26c21c69","pz",51,39,1,46,8000,203167,"64e50c10068e51e8562a66d7",1,NA,NA,3,2,0.108695652173913
"303","55b508f4fdf99b1c26c21c69","pz",60,23,1,52,4935,208116,"64e50c10068e51e8562a66d7",1,NA,NA,3,3,0.153846153846154
"304","55b508f4fdf99b1c26c21c69","pz",65,36,1,56,4211,212345,"64e50c10068e51e8562a66d7",1,NA,NA,3,4,0.160714285714286
"305","55b508f4fdf99b1c26c21c69","pz",57,45,1,46,4761,217112,"64e50c10068e51e8562a66d7",1,NA,NA,3,5,0.239130434782609
"306","55b508f4fdf99b1c26c21c69","pz",42,44,1,37,5125,222245,"64e50c10068e51e8562a66d7",1,NA,NA,3,6,0.135135135135135
"307","55b508f4fdf99b1c26c21c69","pz",26,47,1,23,5846,228094,"64e50c10068e51e8562a66d7",1,NA,NA,3,7,0.130434782608696
"308","55b508f4fdf99b1c26c21c69","pz",61,30,1,51,6415,234514,"64e50c10068e51e8562a66d7",1,NA,NA,3,8,0.196078431372549
"309","55b508f4fdf99b1c26c21c69","pz",39,36,1,34,3694,238213,"64e50c10068e51e8562a66d7",1,NA,NA,3,9,0.147058823529412
"310","55b508f4fdf99b1c26c21c69","pz",52,42,1,45,6000,244216,"64e50c10068e51e8562a66d7",1,NA,NA,3,10,0.155555555555556
"311","55b508f4fdf99b1c26c21c69","pz",57,60,1,47,4915,249144,"64e50c10068e51e8562a66d7",1,NA,NA,3,11,0.212765957446809
"312","55b508f4fdf99b1c26c21c69","pz",62,43,1,52,6165,255317,"64e50c10068e51e8562a66d7",1,NA,NA,3,12,0.192307692307692
"313","55b508f4fdf99b1c26c21c69","pz",65,45,1,59,8000,263325,"64e50c10068e51e8562a66d7",1,NA,NA,3,13,0.101694915254237
"314","55b508f4fdf99b1c26c21c69","pz",66,58,1,55,2620,265952,"64e50c10068e51e8562a66d7",1,NA,NA,3,14,0.2
"315","55b508f4fdf99b1c26c21c69","pz",51,37,1,43,5765,271743,"64e50c10068e51e8562a66d7",1,NA,NA,3,15,0.186046511627907
"316","55b508f4fdf99b1c26c21c69","eb",22,37,1,28,4702,336098,"64e50c10068e51e8562a66d7",1,0,0,3,1,0.214285714285714
"317","55b508f4fdf99b1c26c21c69","eb",37,43,1,46,6795,342908,"64e50c10068e51e8562a66d7",1,0,0,3,2,0.195652173913043
"318","55b508f4fdf99b1c26c21c69","eb",21,27,1,25,6458,349373,"64e50c10068e51e8562a66d7",1,0,0,3,3,0.16
"319","55b508f4fdf99b1c26c21c69","eb",37,35,1,46,5877,355258,"64e50c10068e51e8562a66d7",1,0,0,3,4,0.195652173913043
"320","55b508f4fdf99b1c26c21c69","eb",25,30,1,29,4230,359492,"64e50c10068e51e8562a66d7",1,0,0,3,5,0.137931034482759
"321","55b508f4fdf99b1c26c21c69","eb",40,30,1,47,7395,366891,"64e50c10068e51e8562a66d7",1,0,0,3,6,0.148936170212766
"322","55b508f4fdf99b1c26c21c69","eb",37,47,1,46,3883,370780,"64e50c10068e51e8562a66d7",1,0,0,3,7,0.195652173913043
"323","55b508f4fdf99b1c26c21c69","eb",25,47,1,28,4854,375648,"64e50c10068e51e8562a66d7",1,0,0,3,8,0.107142857142857
"324","55b508f4fdf99b1c26c21c69","eb",42,46,1,51,6303,381964,"64e50c10068e51e8562a66d7",1,0,0,3,9,0.176470588235294
"325","55b508f4fdf99b1c26c21c69","eb",27,45,1,34,8000,389988,"64e50c10068e51e8562a66d7",1,0,0,3,10,0.205882352941176
"326","55b508f4fdf99b1c26c21c69","eb",23,33,1,26,7416,397407,"64e50c10068e51e8562a66d7",1,0,0,3,11,0.115384615384615
"327","55b508f4fdf99b1c26c21c69","eb",33,33,1,43,8000,405423,"64e50c10068e51e8562a66d7",1,0,0,3,12,0.232558139534884
"329","55b508f4fdf99b1c26c21c69","eb",20,45,1,24,5884,411373,"64e50c10068e51e8562a66d7",1,0,0,3,14,0.166666666666667
"330","55b508f4fdf99b1c26c21c69","eb",28,35,1,32,6613,417990,"64e50c10068e51e8562a66d7",1,0,0,3,15,0.125
"331","55b508f4fdf99b1c26c21c69","pog",286,370,2,319,8000,475786,"64e50c10068e51e8562a66d7",1,0,0,3,1,33
"332","55b508f4fdf99b1c26c21c69","pog",307,309,2,346,5410,481199,"64e50c10068e51e8562a66d7",1,0,0,3,2,39
"333","55b508f4fdf99b1c26c21c69","pog",332,334,2,374,4951,486158,"64e50c10068e51e8562a66d7",1,0,0,3,3,42
"334","55b508f4fdf99b1c26c21c69","pog",272,370,2,309,6875,493053,"64e50c10068e51e8562a66d7",1,0,0,3,4,37
"335","55b508f4fdf99b1c26c21c69","pog",303,307,2,337,3576,496631,"64e50c10068e51e8562a66d7",1,0,0,3,5,34
"336","55b508f4fdf99b1c26c21c69","pog",297,329,2,335,4937,501575,"64e50c10068e51e8562a66d7",1,0,0,3,6,38
"337","55b508f4fdf99b1c26c21c69","pog",339,327,2,377,3666,505253,"64e50c10068e51e8562a66d7",1,0,0,3,7,38
"338","55b508f4fdf99b1c26c21c69","pog",311,295,2,353,4229,509484,"64e50c10068e51e8562a66d7",1,0,0,3,8,42
"339","55b508f4fdf99b1c26c21c69","pog",318,340,2,361,5890,515376,"64e50c10068e51e8562a66d7",1,0,0,3,9,43
"340","55b508f4fdf99b1c26c21c69","pog",297,359,2,335,5584,520985,"64e50c10068e51e8562a66d7",1,0,0,3,10,38
"341","55b508f4fdf99b1c26c21c69","pog",288,310,2,323,5165,526151,"64e50c10068e51e8562a66d7",1,0,0,3,11,35
"342","55b508f4fdf99b1c26c21c69","pog",285,327,2,305,4247,530401,"64e50c10068e51e8562a66d7",1,0,0,3,12,20
"343","55b508f4fdf99b1c26c21c69","pog",318,308,2,347,4447,534851,"64e50c10068e51e8562a66d7",1,0,0,3,13,29
"344","55b508f4fdf99b1c26c21c69","pog",312,296,2,343,2387,537240,"64e50c10068e51e8562a66d7",1,0,0,3,14,31
"345","55b508f4fdf99b1c26c21c69","pog",287,387,2,322,6652,543901,"64e50c10068e51e8562a66d7",1,0,0,3,15,35
"346","55b508f4fdf99b1c26c21c69","br",21,13,2,211,2896,572446,"64e50c10068e51e8562a66d7",1,25,-12,3,1,0.0995260663507109
"347","55b508f4fdf99b1c26c21c69","br",22,-13,2,285,4691,577157,"64e50c10068e51e8562a66d7",1,-12,-5,3,2,0.0771929824561404
"348","55b508f4fdf99b1c26c21c69","br",20,11,2,206,5911,583079,"64e50c10068e51e8562a66d7",1,-13,29,3,3,0.0970873786407767
"349","55b508f4fdf99b1c26c21c69","br",21,19,2,263,2994,586082,"64e50c10068e51e8562a66d7",1,15,4,3,4,0.0798479087452472
"350","55b508f4fdf99b1c26c21c69","br",19,-2,2,254,6547,592632,"64e50c10068e51e8562a66d7",1,3,-28,3,5,0.0748031496062992
"351","55b508f4fdf99b1c26c21c69","br",27,-7,2,274,7032,599668,"64e50c10068e51e8562a66d7",1,-13,15,3,6,0.0985401459854015
"352","55b508f4fdf99b1c26c21c69","br",25,22,2,259,2237,601910,"64e50c10068e51e8562a66d7",1,26,-29,3,7,0.0965250965250965
"353","55b508f4fdf99b1c26c21c69","br",25,-7,2,273,6875,608798,"64e50c10068e51e8562a66d7",1,2,-16,3,8,0.0915750915750916
"354","55b508f4fdf99b1c26c21c69","br",27,21,2,271,5781,614582,"64e50c10068e51e8562a66d7",1,14,6,3,9,0.0996309963099631
"355","55b508f4fdf99b1c26c21c69","br",27,11,2,299,6030,620614,"64e50c10068e51e8562a66d7",1,12,-1,3,10,0.0903010033444816
"356","55b508f4fdf99b1c26c21c69","br",23,25,2,222,5175,625795,"64e50c10068e51e8562a66d7",1,-12,3,3,11,0.103603603603604
"357","55b508f4fdf99b1c26c21c69","br",23,-18,2,244,8000,633812,"64e50c10068e51e8562a66d7",1,-27,14,3,12,0.0942622950819672
"358","55b508f4fdf99b1c26c21c69","br",24,16,2,277,5749,639564,"64e50c10068e51e8562a66d7",1,25,-4,3,13,0.0866425992779783
"359","55b508f4fdf99b1c26c21c69","br",24,6,2,255,5496,645064,"64e50c10068e51e8562a66d7",1,-12,6,3,14,0.0941176470588235
"360","55b508f4fdf99b1c26c21c69","br",25,-29,2,277,7095,652164,"64e50c10068e51e8562a66d7",1,11,16,3,15,0.0902527075812274
"361","55b508f4fdf99b1c26c21c69","zol",0.9,-0.3,1,NA,8000,685295,"64e50c10068e51e8562a66d7",1,16,-5,3,1,0.9
"362","55b508f4fdf99b1c26c21c69","zol",0.66,0.44,1,NA,5813,691116,"64e50c10068e51e8562a66d7",1,4,4,3,2,0.66
"363","55b508f4fdf99b1c26c21c69","zol",1.33,-0.03,1,NA,7339,698475,"64e50c10068e51e8562a66d7",1,-4,-15,3,3,1.33
"364","55b508f4fdf99b1c26c21c69","zol",0.77,-0.57,1,NA,3810,702309,"64e50c10068e51e8562a66d7",1,4,29,3,4,0.77
"365","55b508f4fdf99b1c26c21c69","zol",1.56,0.14,1,NA,4286,706607,"64e50c10068e51e8562a66d7",1,24,-17,3,5,1.56
"366","55b508f4fdf99b1c26c21c69","zol",0.94,-0.64,1,NA,5377,712007,"64e50c10068e51e8562a66d7",1,29,-3,3,6,0.94
"367","55b508f4fdf99b1c26c21c69","zol",1.21,-0.21,1,NA,4614,716638,"64e50c10068e51e8562a66d7",1,6,18,3,7,1.21
"368","55b508f4fdf99b1c26c21c69","zol",0.88,-0.08,1,NA,5666,722333,"64e50c10068e51e8562a66d7",1,-9,9,3,8,0.88
"369","55b508f4fdf99b1c26c21c69","zol",1.23,-0.73,1,NA,3644,725997,"64e50c10068e51e8562a66d7",1,-28,27,3,9,1.23
"370","55b508f4fdf99b1c26c21c69","zol",0.8,-0.6,1,NA,5999,732024,"64e50c10068e51e8562a66d7",1,20,-15,3,10,0.8
"371","55b508f4fdf99b1c26c21c69","zol",0.27,-0.57,1,NA,6341,738390,"64e50c10068e51e8562a66d7",1,1,7,3,11,0.27
"372","55b508f4fdf99b1c26c21c69","zol",0.81,0.49,1,NA,5666,744082,"64e50c10068e51e8562a66d7",1,-22,30,3,12,0.81
"373","55b508f4fdf99b1c26c21c69","zol",1.09,0.41,1,NA,5565,749662,"64e50c10068e51e8562a66d7",1,16,20,3,13,1.09
"374","55b508f4fdf99b1c26c21c69","zol",1.34,0.46,1,NA,5146,754812,"64e50c10068e51e8562a66d7",1,24,-18,3,14,1.34
"375","55b508f4fdf99b1c26c21c69","zol",1.22,0.58,1,NA,3432,758249,"64e50c10068e51e8562a66d7",1,-24,-20,3,15,1.22
"376","55b508f4fdf99b1c26c21c69","pog",196,214,1,165,4085,782242,"64e50c10068e51e8562a66d7",2,0,0,3,1,31
"377","55b508f4fdf99b1c26c21c69","pog",166,102,1,139,6113,788358,"64e50c10068e51e8562a66d7",2,0,0,3,2,27
"378","55b508f4fdf99b1c26c21c69","pog",201,135,1,173,4414,792777,"64e50c10068e51e8562a66d7",2,0,0,3,3,28
"379","55b508f4fdf99b1c26c21c69","pog",152,186,1,125,6207,798991,"64e50c10068e51e8562a66d7",2,0,0,3,4,27
"380","55b508f4fdf99b1c26c21c69","pog",151,189,1,130,4513,803508,"64e50c10068e51e8562a66d7",2,0,0,3,5,21
"381","55b508f4fdf99b1c26c21c69","pog",187,133,1,159,6596,810111,"64e50c10068e51e8562a66d7",2,0,0,3,6,28
"382","55b508f4fdf99b1c26c21c69","pog",157,165,1,131,4985,815102,"64e50c10068e51e8562a66d7",2,0,0,3,7,26
"383","55b508f4fdf99b1c26c21c69","pog",166,216,1,142,5667,820776,"64e50c10068e51e8562a66d7",2,0,0,3,8,24
"384","55b508f4fdf99b1c26c21c69","pog",181,119,1,148,5076,825857,"64e50c10068e51e8562a66d7",2,0,0,3,9,33
"385","55b508f4fdf99b1c26c21c69","pog",211,201,1,182,6066,831927,"64e50c10068e51e8562a66d7",2,0,0,3,10,29
"386","55b508f4fdf99b1c26c21c69","pog",200,158,1,173,5609,837540,"64e50c10068e51e8562a66d7",2,0,0,3,11,27
"387","55b508f4fdf99b1c26c21c69","pog",194,146,1,162,5895,843441,"64e50c10068e51e8562a66d7",2,0,0,3,12,32
"388","55b508f4fdf99b1c26c21c69","pog",182,110,1,155,6386,849831,"64e50c10068e51e8562a66d7",2,0,0,3,13,27
"389","55b508f4fdf99b1c26c21c69","pog",213,171,1,189,7419,857289,"64e50c10068e51e8562a66d7",2,0,0,3,14,24
"390","55b508f4fdf99b1c26c21c69","pog",180,130,1,150,4518,861811,"64e50c10068e51e8562a66d7",2,0,0,3,15,30
"391","55b508f4fdf99b1c26c21c69","pz",36,23,2,43,4161,897869,"64e50c10068e51e8562a66d7",2,NA,NA,3,1,0.162790697674419
"392","55b508f4fdf99b1c26c21c69","pz",19,22,2,23,4777,902654,"64e50c10068e51e8562a66d7",2,NA,NA,3,2,0.173913043478261
"393","55b508f4fdf99b1c26c21c69","pz",35,55,2,41,6101,908759,"64e50c10068e51e8562a66d7",2,NA,NA,3,3,0.146341463414634
"394","55b508f4fdf99b1c26c21c69","pz",35,35,2,46,1133,909904,"64e50c10068e51e8562a66d7",2,NA,NA,3,4,0.239130434782609
"395","55b508f4fdf99b1c26c21c69","pz",19,50,2,22,6148,916056,"64e50c10068e51e8562a66d7",2,NA,NA,3,5,0.136363636363636
"396","55b508f4fdf99b1c26c21c69","pz",37,31,2,46,3893,919953,"64e50c10068e51e8562a66d7",2,NA,NA,3,6,0.195652173913043
"397","55b508f4fdf99b1c26c21c69","pz",31,29,2,36,2562,922519,"64e50c10068e51e8562a66d7",2,NA,NA,3,7,0.138888888888889
"398","55b508f4fdf99b1c26c21c69","pz",45,20,2,52,4298,926823,"64e50c10068e51e8562a66d7",2,NA,NA,3,8,0.134615384615385
"399","55b508f4fdf99b1c26c21c69","pz",33,39,2,38,3539,930365,"64e50c10068e51e8562a66d7",2,NA,NA,3,9,0.131578947368421
"400","55b508f4fdf99b1c26c21c69","pz",21,42,2,24,4531,934903,"64e50c10068e51e8562a66d7",2,NA,NA,3,10,0.125
"401","55b508f4fdf99b1c26c21c69","pz",24,46,2,31,5916,940821,"64e50c10068e51e8562a66d7",2,NA,NA,3,11,0.225806451612903
"402","55b508f4fdf99b1c26c21c69","pz",32,37,2,36,5456,946291,"64e50c10068e51e8562a66d7",2,NA,NA,3,12,0.111111111111111
"403","55b508f4fdf99b1c26c21c69","pz",18,45,2,21,4625,950919,"64e50c10068e51e8562a66d7",2,NA,NA,3,13,0.142857142857143
"404","55b508f4fdf99b1c26c21c69","pz",17,52,2,20,4781,955703,"64e50c10068e51e8562a66d7",2,NA,NA,3,14,0.15
"405","55b508f4fdf99b1c26c21c69","pz",45,56,2,54,5871,961577,"64e50c10068e51e8562a66d7",2,NA,NA,3,15,0.166666666666667
"406","55b508f4fdf99b1c26c21c69","eb",59,42,2,49,6245,994837,"64e50c10068e51e8562a66d7",2,0,0,3,1,0.204081632653061
"407","55b508f4fdf99b1c26c21c69","eb",38,29,2,28,5625,1000468,"64e50c10068e51e8562a66d7",2,0,0,3,2,0.357142857142857
"408","55b508f4fdf99b1c26c21c69","eb",51,37,2,42,5133,1005605,"64e50c10068e51e8562a66d7",2,0,0,3,3,0.214285714285714
"409","55b508f4fdf99b1c26c21c69","eb",50,31,2,42,5931,1011555,"64e50c10068e51e8562a66d7",2,0,0,3,4,0.19047619047619
"410","55b508f4fdf99b1c26c21c69","eb",45,37,2,32,3733,1015306,"64e50c10068e51e8562a66d7",2,0,0,3,5,0.40625
"411","55b508f4fdf99b1c26c21c69","eb",51,43,2,43,6198,1021517,"64e50c10068e51e8562a66d7",2,0,0,3,6,0.186046511627907
"412","55b508f4fdf99b1c26c21c69","eb",56,44,2,46,3231,1024751,"64e50c10068e51e8562a66d7",2,0,0,3,7,0.217391304347826
"413","55b508f4fdf99b1c26c21c69","eb",56,46,2,48,6077,1030832,"64e50c10068e51e8562a66d7",2,0,0,3,8,0.166666666666667
"414","55b508f4fdf99b1c26c21c69","eb",51,54,2,42,3977,1034818,"64e50c10068e51e8562a66d7",2,0,0,3,9,0.214285714285714
"415","55b508f4fdf99b1c26c21c69","eb",41,52,2,32,4246,1039068,"64e50c10068e51e8562a66d7",2,0,0,3,10,0.28125
"416","55b508f4fdf99b1c26c21c69","eb",62,41,2,53,4380,1043454,"64e50c10068e51e8562a66d7",2,0,0,3,11,0.169811320754717
"417","55b508f4fdf99b1c26c21c69","eb",24,35,2,24,4442,1047900,"64e50c10068e51e8562a66d7",2,0,0,3,12,0
"418","55b508f4fdf99b1c26c21c69","eb",44,30,2,37,3930,1051833,"64e50c10068e51e8562a66d7",2,0,0,3,13,0.189189189189189
"419","55b508f4fdf99b1c26c21c69","eb",37,29,2,31,4905,1056741,"64e50c10068e51e8562a66d7",2,0,0,3,14,0.193548387096774
"420","55b508f4fdf99b1c26c21c69","eb",29,50,2,25,5547,1062301,"64e50c10068e51e8562a66d7",2,0,0,3,15,0.16
"421","55b508f4fdf99b1c26c21c69","zol",-0.32,-0.38,2,NA,6490,1096228,"64e50c10068e51e8562a66d7",2,21,-14,3,1,0.32
"422","55b508f4fdf99b1c26c21c69","zol",-1.4,0.1,2,NA,3738,1099976,"64e50c10068e51e8562a66d7",2,-28,-10,3,2,1.4
"423","55b508f4fdf99b1c26c21c69","zol",-1.53,0.13,2,NA,5083,1105083,"64e50c10068e51e8562a66d7",2,-23,25,3,3,1.53
"424","55b508f4fdf99b1c26c21c69","zol",-1.64,0.74,2,NA,5233,1110320,"64e50c10068e51e8562a66d7",2,22,28,3,4,1.64
"425","55b508f4fdf99b1c26c21c69","zol",-0.59,0.59,2,NA,5747,1116083,"64e50c10068e51e8562a66d7",2,-4,-7,3,5,0.59
"426","55b508f4fdf99b1c26c21c69","zol",-1.09,-0.51,2,NA,5995,1122083,"64e50c10068e51e8562a66d7",2,29,-11,3,6,1.09
"427","55b508f4fdf99b1c26c21c69","zol",-0.6,-0.2,2,NA,5065,1127201,"64e50c10068e51e8562a66d7",2,-12,20,3,7,0.6
"428","55b508f4fdf99b1c26c21c69","zol",-0.38,-0.62,2,NA,2841,1130108,"64e50c10068e51e8562a66d7",2,30,0,3,8,0.38
"429","55b508f4fdf99b1c26c21c69","zol",-0.99,0.19,2,NA,3243,1133365,"64e50c10068e51e8562a66d7",2,3,-5,3,9,0.99
"430","55b508f4fdf99b1c26c21c69","zol",-0.91,-0.49,2,NA,5487,1138882,"64e50c10068e51e8562a66d7",2,12,24,3,10,0.91
"431","55b508f4fdf99b1c26c21c69","zol",-1.26,0.56,2,NA,4884,1143771,"64e50c10068e51e8562a66d7",2,27,7,3,11,1.26
"432","55b508f4fdf99b1c26c21c69","zol",-0.73,0.73,2,NA,5167,1148965,"64e50c10068e51e8562a66d7",2,-12,-6,3,12,0.73
"433","55b508f4fdf99b1c26c21c69","zol",-1.27,0.07,2,NA,4945,1153915,"64e50c10068e51e8562a66d7",2,3,-22,3,13,1.27
"434","55b508f4fdf99b1c26c21c69","zol",-1.16,-0.74,2,NA,4747,1158665,"64e50c10068e51e8562a66d7",2,12,-25,3,14,1.16
"435","55b508f4fdf99b1c26c21c69","zol",-1.12,0.42,2,NA,3912,1162581,"64e50c10068e51e8562a66d7",2,15,-23,3,15,1.12
"436","55b508f4fdf99b1c26c21c69","br",-15,-9,1,287,3886,1182316,"64e50c10068e51e8562a66d7",2,-20,-19,3,1,0.0522648083623693
"437","55b508f4fdf99b1c26c21c69","br",-8,15,1,235,4445,1186778,"64e50c10068e51e8562a66d7",2,18,-22,3,2,0.0340425531914894
"438","55b508f4fdf99b1c26c21c69","br",-15,27,1,299,7262,1194045,"64e50c10068e51e8562a66d7",2,-18,23,3,3,0.0501672240802676
"439","55b508f4fdf99b1c26c21c69","br",-16,30,1,229,6880,1200927,"64e50c10068e51e8562a66d7",2,-24,-1,3,4,0.0698689956331878
"440","55b508f4fdf99b1c26c21c69","br",-15,30,1,296,6328,1207260,"64e50c10068e51e8562a66d7",2,-3,-28,3,5,0.0506756756756757
"441","55b508f4fdf99b1c26c21c69","br",-15,10,1,268,3504,1210772,"64e50c10068e51e8562a66d7",2,-13,-6,3,6,0.0559701492537313
"442","55b508f4fdf99b1c26c21c69","br",-15,9,1,215,4477,1215260,"64e50c10068e51e8562a66d7",2,8,5,3,7,0.0697674418604651
"443","55b508f4fdf99b1c26c21c69","br",-22,-12,1,226,3994,1219257,"64e50c10068e51e8562a66d7",2,-27,-18,3,8,0.0973451327433628
"444","55b508f4fdf99b1c26c21c69","br",-15,30,1,214,6611,1225892,"64e50c10068e51e8562a66d7",2,-18,-5,3,9,0.0700934579439252
"445","55b508f4fdf99b1c26c21c69","br",-15,25,1,290,6443,1232344,"64e50c10068e51e8562a66d7",2,10,-30,3,10,0.0517241379310345
"446","55b508f4fdf99b1c26c21c69","br",-18,20,1,273,8000,1240359,"64e50c10068e51e8562a66d7",2,1,-21,3,11,0.0659340659340659
"448","55b508f4fdf99b1c26c21c69","br",-16,8,1,263,4399,1244831,"64e50c10068e51e8562a66d7",2,-29,-8,3,13,0.0608365019011407
"449","55b508f4fdf99b1c26c21c69","br",-14,10,1,273,4770,1249616,"64e50c10068e51e8562a66d7",2,7,17,3,14,0.0512820512820513
"450","55b508f4fdf99b1c26c21c69","br",-17,-11,1,227,4887,1254515,"64e50c10068e51e8562a66d7",2,18,-20,3,15,0.0748898678414097
"451","560379c9e372c00011bd4a90","pz",21,45,2,33,8000,356241,"64de66644aa88cd792d1eef0",1,NA,NA,4,1,0.363636363636364
"452","560379c9e372c00011bd4a90","pz",19,44,2,29,8000,364243,"64de66644aa88cd792d1eef0",1,NA,NA,4,2,0.344827586206897
"453","560379c9e372c00011bd4a90","pz",22,24,2,35,8000,372246,"64de66644aa88cd792d1eef0",1,NA,NA,4,3,0.371428571428571
"454","560379c9e372c00011bd4a90","pz",24,32,2,45,4695,376949,"64de66644aa88cd792d1eef0",1,NA,NA,4,4,0.466666666666667
"455","560379c9e372c00011bd4a90","pz",24,36,2,54,8000,384953,"64de66644aa88cd792d1eef0",1,NA,NA,4,5,0.555555555555556
"456","560379c9e372c00011bd4a90","pz",22,33,2,30,8000,392967,"64de66644aa88cd792d1eef0",1,NA,NA,4,6,0.266666666666667
"457","560379c9e372c00011bd4a90","pz",27,43,2,59,8000,400981,"64de66644aa88cd792d1eef0",1,NA,NA,4,7,0.542372881355932
"458","560379c9e372c00011bd4a90","pz",27,44,2,58,8000,408994,"64de66644aa88cd792d1eef0",1,NA,NA,4,8,0.53448275862069
"459","560379c9e372c00011bd4a90","pz",24,53,2,50,8000,416999,"64de66644aa88cd792d1eef0",1,NA,NA,4,9,0.52
"460","560379c9e372c00011bd4a90","pz",32,56,2,54,8000,425001,"64de66644aa88cd792d1eef0",1,NA,NA,4,10,0.407407407407407
"461","560379c9e372c00011bd4a90","pz",29,24,2,46,8000,433003,"64de66644aa88cd792d1eef0",1,NA,NA,4,11,0.369565217391304
"462","560379c9e372c00011bd4a90","pz",25,35,2,37,8000,441005,"64de66644aa88cd792d1eef0",1,NA,NA,4,12,0.324324324324324
"463","560379c9e372c00011bd4a90","pz",26,51,2,41,8000,449008,"64de66644aa88cd792d1eef0",1,NA,NA,4,13,0.365853658536585
"464","560379c9e372c00011bd4a90","pz",26,55,2,56,8000,457011,"64de66644aa88cd792d1eef0",1,NA,NA,4,14,0.535714285714286
"465","560379c9e372c00011bd4a90","pz",14,33,2,24,8000,465014,"64de66644aa88cd792d1eef0",1,NA,NA,4,15,0.416666666666667
"466","560379c9e372c00011bd4a90","eb",39,51,2,34,8000,544935,"64de66644aa88cd792d1eef0",1,0,0,4,1,0.147058823529412
"467","560379c9e372c00011bd4a90","eb",37,36,2,34,8000,552939,"64de66644aa88cd792d1eef0",1,0,0,4,2,0.0882352941176471
"468","560379c9e372c00011bd4a90","eb",45,33,2,46,8000,560943,"64de66644aa88cd792d1eef0",1,0,0,4,3,-0.0217391304347826
"469","560379c9e372c00011bd4a90","eb",27,36,2,24,8000,568946,"64de66644aa88cd792d1eef0",1,0,0,4,4,0.125
"470","560379c9e372c00011bd4a90","eb",33,28,2,33,8000,576954,"64de66644aa88cd792d1eef0",1,0,0,4,5,0
"471","560379c9e372c00011bd4a90","eb",31,24,2,29,8000,584958,"64de66644aa88cd792d1eef0",1,0,0,4,6,0.0689655172413793
"472","560379c9e372c00011bd4a90","eb",27,50,2,27,8000,592978,"64de66644aa88cd792d1eef0",1,0,0,4,7,0
"473","560379c9e372c00011bd4a90","eb",40,25,2,39,8000,600980,"64de66644aa88cd792d1eef0",1,0,0,4,8,0.0256410256410256
"474","560379c9e372c00011bd4a90","eb",37,29,2,34,8000,608983,"64de66644aa88cd792d1eef0",1,0,0,4,9,0.0882352941176471
"475","560379c9e372c00011bd4a90","eb",41,34,2,39,8000,616987,"64de66644aa88cd792d1eef0",1,0,0,4,10,0.0512820512820513
"476","560379c9e372c00011bd4a90","eb",54,32,2,52,8000,624989,"64de66644aa88cd792d1eef0",1,0,0,4,11,0.0384615384615385
"477","560379c9e372c00011bd4a90","eb",28,53,2,29,8000,632991,"64de66644aa88cd792d1eef0",1,0,0,4,12,-0.0344827586206897
"478","560379c9e372c00011bd4a90","eb",28,26,2,29,8000,640996,"64de66644aa88cd792d1eef0",1,0,0,4,13,-0.0344827586206897
"479","560379c9e372c00011bd4a90","eb",53,29,2,52,8000,648999,"64de66644aa88cd792d1eef0",1,0,0,4,14,0.0192307692307692
"480","560379c9e372c00011bd4a90","eb",58,26,2,54,8000,657002,"64de66644aa88cd792d1eef0",1,0,0,4,15,0.0740740740740741
"481","560379c9e372c00011bd4a90","pog",330,298,2,346,8000,723307,"64de66644aa88cd792d1eef0",1,0,0,4,1,16
"482","560379c9e372c00011bd4a90","pog",310,284,2,324,8000,731309,"64de66644aa88cd792d1eef0",1,0,0,4,2,14
"483","560379c9e372c00011bd4a90","pog",353,359,2,364,8000,739311,"64de66644aa88cd792d1eef0",1,0,0,4,3,11
"484","560379c9e372c00011bd4a90","pog",292,336,2,311,8000,747313,"64de66644aa88cd792d1eef0",1,0,0,4,4,19
"485","560379c9e372c00011bd4a90","pog",287,319,2,300,8000,755319,"64de66644aa88cd792d1eef0",1,0,0,4,5,13
"486","560379c9e372c00011bd4a90","pog",284,290,2,301,8000,763321,"64de66644aa88cd792d1eef0",1,0,0,4,6,17
"487","560379c9e372c00011bd4a90","pog",306,344,2,316,8000,771324,"64de66644aa88cd792d1eef0",1,0,0,4,7,10
"488","560379c9e372c00011bd4a90","pog",304,282,2,318,8000,779327,"64de66644aa88cd792d1eef0",1,0,0,4,8,14
"489","560379c9e372c00011bd4a90","pog",316,368,2,329,8000,787329,"64de66644aa88cd792d1eef0",1,0,0,4,9,13
"490","560379c9e372c00011bd4a90","pog",358,306,2,371,8000,795332,"64de66644aa88cd792d1eef0",1,0,0,4,10,13
"491","560379c9e372c00011bd4a90","pog",362,332,2,379,8000,803339,"64de66644aa88cd792d1eef0",1,0,0,4,11,17
"492","560379c9e372c00011bd4a90","pog",336,286,2,344,8000,811343,"64de66644aa88cd792d1eef0",1,0,0,4,12,8
"493","560379c9e372c00011bd4a90","pog",288,312,2,303,8000,819348,"64de66644aa88cd792d1eef0",1,0,0,4,13,15
"494","560379c9e372c00011bd4a90","pog",310,308,2,326,8000,827351,"64de66644aa88cd792d1eef0",1,0,0,4,14,16
"495","560379c9e372c00011bd4a90","pog",345,393,2,358,8000,835353,"64de66644aa88cd792d1eef0",1,0,0,4,15,13
"496","560379c9e372c00011bd4a90","zol",-1.51,0.41,2,NA,8000,888357,"64de66644aa88cd792d1eef0",1,-22,23,4,1,1.51
"497","560379c9e372c00011bd4a90","zol",-0.8,-0.4,2,NA,8000,896368,"64de66644aa88cd792d1eef0",1,12,-22,4,2,0.8
"498","560379c9e372c00011bd4a90","zol",-0.89,-0.21,2,NA,8000,904372,"64de66644aa88cd792d1eef0",1,-3,22,4,3,0.89
"499","560379c9e372c00011bd4a90","zol",-1.55,0.15,2,NA,8000,912379,"64de66644aa88cd792d1eef0",1,-1,-27,4,4,1.55
"500","560379c9e372c00011bd4a90","zol",-1.41,0.31,2,NA,5216,917601,"64de66644aa88cd792d1eef0",1,5,-14,4,5,1.41
"501","560379c9e372c00011bd4a90","zol",-1.32,0.02,2,NA,4596,922205,"64de66644aa88cd792d1eef0",1,8,-21,4,6,1.32
"502","560379c9e372c00011bd4a90","zol",-0.68,-0.22,2,NA,3900,926116,"64de66644aa88cd792d1eef0",1,-8,0,4,7,0.68
"503","560379c9e372c00011bd4a90","zol",-1.62,0.12,2,NA,2511,928630,"64de66644aa88cd792d1eef0",1,26,16,4,8,1.62
"504","560379c9e372c00011bd4a90","zol",-1.5,-0.3,2,NA,3038,931678,"64de66644aa88cd792d1eef0",1,-7,6,4,9,1.5
"505","560379c9e372c00011bd4a90","zol",-1.5,-0.1,2,NA,2654,934335,"64de66644aa88cd792d1eef0",1,15,-19,4,10,1.5
"506","560379c9e372c00011bd4a90","zol",-1.71,0.21,2,NA,2789,937129,"64de66644aa88cd792d1eef0",1,-26,-1,4,11,1.71
"507","560379c9e372c00011bd4a90","zol",-1.31,0.11,2,NA,3213,940344,"64de66644aa88cd792d1eef0",1,-4,-22,4,12,1.31
"508","560379c9e372c00011bd4a90","zol",-1.71,0.11,2,NA,3190,943540,"64de66644aa88cd792d1eef0",1,24,11,4,13,1.71
"509","560379c9e372c00011bd4a90","zol",-0.87,0.57,2,NA,8000,951549,"64de66644aa88cd792d1eef0",1,22,-27,4,14,0.87
"510","560379c9e372c00011bd4a90","zol",-0.97,0.37,2,NA,8000,959555,"64de66644aa88cd792d1eef0",1,8,5,4,15,0.97
"511","560379c9e372c00011bd4a90","br",18,-24,2,239,4278,997794,"64de66644aa88cd792d1eef0",1,-5,20,4,1,0.0753138075313808
"512","560379c9e372c00011bd4a90","br",15,6,2,202,3155,1000960,"64de66644aa88cd792d1eef0",1,-4,-30,4,2,0.0742574257425743
"513","560379c9e372c00011bd4a90","br",17,16,2,286,3940,1004921,"64de66644aa88cd792d1eef0",1,-24,24,4,3,0.0594405594405594
"514","560379c9e372c00011bd4a90","br",12,-9,2,234,3743,1008671,"64de66644aa88cd792d1eef0",1,11,-12,4,4,0.0512820512820513
"515","560379c9e372c00011bd4a90","br",16,-23,2,213,8000,1016675,"64de66644aa88cd792d1eef0",1,-18,-5,4,5,0.0751173708920188
"516","560379c9e372c00011bd4a90","br",16,-15,2,239,5487,1022166,"64de66644aa88cd792d1eef0",1,17,24,4,6,0.0669456066945607
"517","560379c9e372c00011bd4a90","br",18,25,2,291,4669,1026836,"64de66644aa88cd792d1eef0",1,-24,10,4,7,0.0618556701030928
"518","560379c9e372c00011bd4a90","br",19,4,2,294,3115,1029953,"64de66644aa88cd792d1eef0",1,24,-7,4,8,0.0646258503401361
"519","560379c9e372c00011bd4a90","br",15,-24,2,273,3239,1033212,"64de66644aa88cd792d1eef0",1,22,18,4,9,0.0549450549450549
"520","560379c9e372c00011bd4a90","br",17,-13,2,209,4566,1037782,"64de66644aa88cd792d1eef0",1,-23,-11,4,10,0.0813397129186603
"521","560379c9e372c00011bd4a90","br",20,-30,2,259,5860,1043644,"64de66644aa88cd792d1eef0",1,-17,24,4,11,0.0772200772200772
"522","560379c9e372c00011bd4a90","br",17,-23,2,235,3046,1046695,"64de66644aa88cd792d1eef0",1,-27,-14,4,12,0.0723404255319149
"523","560379c9e372c00011bd4a90","br",16,-18,2,257,5751,1052453,"64de66644aa88cd792d1eef0",1,0,-22,4,13,0.0622568093385214
"524","560379c9e372c00011bd4a90","br",17,23,2,261,3048,1055504,"64de66644aa88cd792d1eef0",1,25,16,4,14,0.0651340996168582
"525","560379c9e372c00011bd4a90","br",19,22,2,214,1826,1057332,"64de66644aa88cd792d1eef0",1,8,-1,4,15,0.088785046728972
"526","560379c9e372c00011bd4a90","eb",42,50,1,45,6702,1098517,"64de66644aa88cd792d1eef0",2,0,0,4,1,0.0666666666666667
"527","560379c9e372c00011bd4a90","eb",24,25,1,25,5834,1104356,"64de66644aa88cd792d1eef0",2,0,0,4,2,0.04
"528","560379c9e372c00011bd4a90","eb",46,40,1,50,4637,1108995,"64de66644aa88cd792d1eef0",2,0,0,4,3,0.08
"529","560379c9e372c00011bd4a90","eb",25,37,1,25,5040,1114036,"64de66644aa88cd792d1eef0",2,0,0,4,4,0
"530","560379c9e372c00011bd4a90","eb",44,28,1,52,4322,1118361,"64de66644aa88cd792d1eef0",2,0,0,4,5,0.153846153846154
"531","560379c9e372c00011bd4a90","eb",24,51,1,24,4381,1122749,"64de66644aa88cd792d1eef0",2,0,0,4,6,0
"532","560379c9e372c00011bd4a90","eb",35,45,1,41,4047,1126799,"64de66644aa88cd792d1eef0",2,0,0,4,7,0.146341463414634
"533","560379c9e372c00011bd4a90","eb",24,54,1,24,4098,1130900,"64de66644aa88cd792d1eef0",2,0,0,4,8,0
"534","560379c9e372c00011bd4a90","eb",45,35,1,46,3785,1134689,"64de66644aa88cd792d1eef0",2,0,0,4,9,0.0217391304347826
"535","560379c9e372c00011bd4a90","eb",26,42,1,28,2910,1137602,"64de66644aa88cd792d1eef0",2,0,0,4,10,0.0714285714285714
"536","560379c9e372c00011bd4a90","eb",26,39,1,28,2890,1140494,"64de66644aa88cd792d1eef0",2,0,0,4,11,0.0714285714285714
"537","560379c9e372c00011bd4a90","eb",42,54,1,48,3798,1144296,"64de66644aa88cd792d1eef0",2,0,0,4,12,0.125
"538","560379c9e372c00011bd4a90","eb",25,39,1,24,4761,1149061,"64de66644aa88cd792d1eef0",2,0,0,4,13,-0.0416666666666667
"539","560379c9e372c00011bd4a90","eb",37,43,1,37,6437,1155500,"64de66644aa88cd792d1eef0",2,0,0,4,14,0
"540","560379c9e372c00011bd4a90","eb",33,32,1,33,3174,1158681,"64de66644aa88cd792d1eef0",2,0,0,4,15,0
"541","560379c9e372c00011bd4a90","pog",137,215,1,132,8000,1208633,"64de66644aa88cd792d1eef0",2,0,0,4,1,5
"542","560379c9e372c00011bd4a90","pog",143,141,1,137,5435,1214073,"64de66644aa88cd792d1eef0",2,0,0,4,2,6
"543","560379c9e372c00011bd4a90","pog",133,105,1,124,8000,1222074,"64de66644aa88cd792d1eef0",2,0,0,4,3,9
"544","560379c9e372c00011bd4a90","pog",146,118,1,141,8000,1230076,"64de66644aa88cd792d1eef0",2,0,0,4,4,5
"545","560379c9e372c00011bd4a90","pog",128,126,1,124,8000,1238079,"64de66644aa88cd792d1eef0",2,0,0,4,5,4
"546","560379c9e372c00011bd4a90","pog",140,142,1,137,6235,1244317,"64de66644aa88cd792d1eef0",2,0,0,4,6,3
"547","560379c9e372c00011bd4a90","pog",175,103,1,171,8000,1252318,"64de66644aa88cd792d1eef0",2,0,0,4,7,4
"548","560379c9e372c00011bd4a90","pog",165,199,1,158,5774,1258094,"64de66644aa88cd792d1eef0",2,0,0,4,8,7
"549","560379c9e372c00011bd4a90","pog",190,162,1,185,6805,1264904,"64de66644aa88cd792d1eef0",2,0,0,4,9,5
"550","560379c9e372c00011bd4a90","pog",202,176,1,192,7114,1272027,"64de66644aa88cd792d1eef0",2,0,0,4,10,10
"551","560379c9e372c00011bd4a90","pog",191,215,1,182,7286,1279315,"64de66644aa88cd792d1eef0",2,0,0,4,11,9
"552","560379c9e372c00011bd4a90","pog",161,217,1,155,8000,1287318,"64de66644aa88cd792d1eef0",2,0,0,4,12,6
"553","560379c9e372c00011bd4a90","pog",145,103,1,138,8000,1295321,"64de66644aa88cd792d1eef0",2,0,0,4,13,7
"554","560379c9e372c00011bd4a90","pog",177,175,1,169,6430,1301752,"64de66644aa88cd792d1eef0",2,0,0,4,14,8
"555","560379c9e372c00011bd4a90","pog",174,156,1,171,8000,1309755,"64de66644aa88cd792d1eef0",2,0,0,4,15,3
"556","560379c9e372c00011bd4a90","pz",106,47,1,54,8000,1352247,"64de66644aa88cd792d1eef0",2,NA,NA,4,1,0.962962962962963
"557","560379c9e372c00011bd4a90","pz",114,51,1,57,5381,1357630,"64de66644aa88cd792d1eef0",2,NA,NA,4,2,1
"558","560379c9e372c00011bd4a90","pz",33,41,1,21,8000,1365631,"64de66644aa88cd792d1eef0",2,NA,NA,4,3,0.571428571428571
"559","560379c9e372c00011bd4a90","pz",87,24,1,49,7806,1373439,"64de66644aa88cd792d1eef0",2,NA,NA,4,4,0.775510204081633
"560","560379c9e372c00011bd4a90","pz",84,32,1,43,8000,1381443,"64de66644aa88cd792d1eef0",2,NA,NA,4,5,0.953488372093023
"561","560379c9e372c00011bd4a90","pz",80,38,1,58,8000,1389447,"64de66644aa88cd792d1eef0",2,NA,NA,4,6,0.379310344827586
"562","560379c9e372c00011bd4a90","pz",66,40,1,31,8000,1397450,"64de66644aa88cd792d1eef0",2,NA,NA,4,7,1.12903225806452
"563","560379c9e372c00011bd4a90","pz",41,58,1,22,4189,1401641,"64de66644aa88cd792d1eef0",2,NA,NA,4,8,0.863636363636364
"564","560379c9e372c00011bd4a90","pz",50,54,1,30,4691,1406335,"64de66644aa88cd792d1eef0",2,NA,NA,4,9,0.666666666666667
"565","560379c9e372c00011bd4a90","pz",78,57,1,49,4124,1410464,"64de66644aa88cd792d1eef0",2,NA,NA,4,10,0.591836734693878
"566","560379c9e372c00011bd4a90","pz",83,35,1,56,5970,1416436,"64de66644aa88cd792d1eef0",2,NA,NA,4,11,0.482142857142857
"567","560379c9e372c00011bd4a90","pz",67,41,1,37,2576,1419015,"64de66644aa88cd792d1eef0",2,NA,NA,4,12,0.810810810810811
"568","560379c9e372c00011bd4a90","pz",67,44,1,44,2223,1421241,"64de66644aa88cd792d1eef0",2,NA,NA,4,13,0.522727272727273
"569","560379c9e372c00011bd4a90","pz",52,56,1,28,2603,1423846,"64de66644aa88cd792d1eef0",2,NA,NA,4,14,0.857142857142857
"570","560379c9e372c00011bd4a90","pz",74,51,1,51,5673,1429521,"64de66644aa88cd792d1eef0",2,NA,NA,4,15,0.450980392156863
"571","560379c9e372c00011bd4a90","zol",0.8,-0.2,1,NA,8000,1467005,"64de66644aa88cd792d1eef0",2,2,-2,4,1,0.8
"572","560379c9e372c00011bd4a90","zol",2.35,-0.25,1,NA,8000,1475011,"64de66644aa88cd792d1eef0",2,-10,28,4,2,2.35
"573","560379c9e372c00011bd4a90","zol",1.28,-0.38,1,NA,8000,1483014,"64de66644aa88cd792d1eef0",2,-23,6,4,3,1.28
"574","560379c9e372c00011bd4a90","zol",1.69,-0.19,1,NA,5800,1488817,"64de66644aa88cd792d1eef0",2,-25,-4,4,4,1.69
"575","560379c9e372c00011bd4a90","zol",0.64,0.56,1,NA,4861,1493688,"64de66644aa88cd792d1eef0",2,18,-15,4,5,0.64
"576","560379c9e372c00011bd4a90","zol",1.3,0.4,1,NA,2238,1495931,"64de66644aa88cd792d1eef0",2,-15,22,4,6,1.3
"577","560379c9e372c00011bd4a90","zol",1.23,0.27,1,NA,3513,1499451,"64de66644aa88cd792d1eef0",2,-25,6,4,7,1.23
"578","560379c9e372c00011bd4a90","zol",1.62,-0.22,1,NA,3413,1502874,"64de66644aa88cd792d1eef0",2,15,-27,4,8,1.62
"579","560379c9e372c00011bd4a90","zol",1.34,0.46,1,NA,3066,1505943,"64de66644aa88cd792d1eef0",2,-23,22,4,9,1.34
"580","560379c9e372c00011bd4a90","zol",1.61,-0.41,1,NA,4621,1510567,"64de66644aa88cd792d1eef0",2,-5,-19,4,10,1.61
"581","560379c9e372c00011bd4a90","zol",1.65,-0.65,1,NA,2350,1512923,"64de66644aa88cd792d1eef0",2,25,-29,4,11,1.65
"582","560379c9e372c00011bd4a90","zol",1.07,-0.27,1,NA,4265,1517191,"64de66644aa88cd792d1eef0",2,23,21,4,12,1.07
"583","560379c9e372c00011bd4a90","zol",0.92,0.28,1,NA,2538,1519732,"64de66644aa88cd792d1eef0",2,26,19,4,13,0.92
"584","560379c9e372c00011bd4a90","zol",1.14,0.36,1,NA,2248,1521984,"64de66644aa88cd792d1eef0",2,-22,-10,4,14,1.14
"585","560379c9e372c00011bd4a90","zol",1.59,-0.49,1,NA,3142,1525147,"64de66644aa88cd792d1eef0",2,12,12,4,15,1.59
"586","560379c9e372c00011bd4a90","br",-15,5,1,296,8000,1544234,"64de66644aa88cd792d1eef0",2,-22,27,4,1,0.0506756756756757
"587","560379c9e372c00011bd4a90","br",-18,-2,1,238,4196,1548433,"64de66644aa88cd792d1eef0",2,16,-23,4,2,0.0756302521008403
"588","560379c9e372c00011bd4a90","br",-16,-5,1,214,3407,1551845,"64de66644aa88cd792d1eef0",2,-24,-2,4,3,0.0747663551401869
"589","560379c9e372c00011bd4a90","br",-11,-17,1,213,4899,1556749,"64de66644aa88cd792d1eef0",2,17,22,4,4,0.0516431924882629
"591","560379c9e372c00011bd4a90","br",-13,3,1,215,4369,1561208,"64de66644aa88cd792d1eef0",2,19,13,4,6,0.0604651162790698
"592","560379c9e372c00011bd4a90","br",-11,-3,1,250,3701,1564919,"64de66644aa88cd792d1eef0",2,-12,16,4,7,0.044
"593","560379c9e372c00011bd4a90","br",-15,14,1,295,2790,1567714,"64de66644aa88cd792d1eef0",2,17,-7,4,8,0.0508474576271186
"594","560379c9e372c00011bd4a90","br",-19,7,1,247,4266,1571986,"64de66644aa88cd792d1eef0",2,8,-3,4,9,0.0769230769230769
"595","560379c9e372c00011bd4a90","br",-16,21,1,283,3427,1575420,"64de66644aa88cd792d1eef0",2,-26,21,4,10,0.0565371024734982
"596","560379c9e372c00011bd4a90","br",-12,-6,1,298,2166,1577590,"64de66644aa88cd792d1eef0",2,7,23,4,11,0.0402684563758389
"597","560379c9e372c00011bd4a90","br",-21,27,1,213,3819,1581418,"64de66644aa88cd792d1eef0",2,14,28,4,12,0.0985915492957746
"598","560379c9e372c00011bd4a90","br",-16,28,1,256,4385,1585809,"64de66644aa88cd792d1eef0",2,17,29,4,13,0.0625
"599","560379c9e372c00011bd4a90","br",-21,-28,1,291,4248,1590061,"64de66644aa88cd792d1eef0",2,-3,-4,4,14,0.0721649484536082
"600","560379c9e372c00011bd4a90","br",-15,8,1,295,4167,1594230,"64de66644aa88cd792d1eef0",2,-3,15,4,15,0.0508474576271186
"601","56944c20e0c800000b59c13a","eb",39,28,2,30,8000,246812,"64de65bd32272b68914dd1d5",1,0,0,5,1,0.3
"602","56944c20e0c800000b59c13a","eb",46,26,2,39,5994,252807,"64de65bd32272b68914dd1d5",1,0,0,5,2,0.17948717948718
"603","56944c20e0c800000b59c13a","eb",42,53,2,32,5630,258439,"64de65bd32272b68914dd1d5",1,0,0,5,3,0.3125
"604","56944c20e0c800000b59c13a","eb",42,32,2,32,6671,265111,"64de65bd32272b68914dd1d5",1,0,0,5,4,0.3125
"605","56944c20e0c800000b59c13a","eb",40,50,2,31,6751,271863,"64de65bd32272b68914dd1d5",1,0,0,5,5,0.290322580645161
"606","56944c20e0c800000b59c13a","eb",29,25,2,24,6295,278159,"64de65bd32272b68914dd1d5",1,0,0,5,6,0.208333333333333
"607","56944c20e0c800000b59c13a","eb",62,50,2,50,8000,286161,"64de65bd32272b68914dd1d5",1,0,0,5,7,0.24
"608","56944c20e0c800000b59c13a","eb",46,44,2,36,4980,291143,"64de65bd32272b68914dd1d5",1,0,0,5,8,0.277777777777778
"609","56944c20e0c800000b59c13a","eb",39,51,2,30,7871,299014,"64de65bd32272b68914dd1d5",1,0,0,5,9,0.3
"610","56944c20e0c800000b59c13a","eb",47,33,2,39,6894,305910,"64de65bd32272b68914dd1d5",1,0,0,5,10,0.205128205128205
"611","56944c20e0c800000b59c13a","eb",32,24,2,24,6519,312430,"64de65bd32272b68914dd1d5",1,0,0,5,11,0.333333333333333
"612","56944c20e0c800000b59c13a","eb",54,47,2,45,6791,319222,"64de65bd32272b68914dd1d5",1,0,0,5,12,0.2
"613","56944c20e0c800000b59c13a","eb",45,38,2,37,5407,324630,"64de65bd32272b68914dd1d5",1,0,0,5,13,0.216216216216216
"614","56944c20e0c800000b59c13a","eb",45,45,2,37,1727,326358,"64de65bd32272b68914dd1d5",1,0,0,5,14,0.216216216216216
"615","56944c20e0c800000b59c13a","eb",32,48,2,26,7975,334334,"64de65bd32272b68914dd1d5",1,0,0,5,15,0.230769230769231
"616","56944c20e0c800000b59c13a","br",-14,17,1,246,5977,375185,"64de65bd32272b68914dd1d5",1,16,-29,5,1,0.056910569105691
"617","56944c20e0c800000b59c13a","br",-15,23,1,202,7527,382712,"64de65bd32272b68914dd1d5",1,0,-24,5,2,0.0742574257425743
"618","56944c20e0c800000b59c13a","br",-16,11,1,247,5869,388583,"64de65bd32272b68914dd1d5",1,11,-6,5,3,0.0647773279352227
"619","56944c20e0c800000b59c13a","br",-20,-17,1,271,2750,391335,"64de65bd32272b68914dd1d5",1,17,15,5,4,0.0738007380073801
"620","56944c20e0c800000b59c13a","br",-23,-26,1,296,1811,393151,"64de65bd32272b68914dd1d5",1,20,24,5,5,0.0777027027027027
"621","56944c20e0c800000b59c13a","br",-17,-7,1,250,3519,396672,"64de65bd32272b68914dd1d5",1,24,-18,5,6,0.068
"622","56944c20e0c800000b59c13a","br",-15,0,1,220,5069,401743,"64de65bd32272b68914dd1d5",1,-27,-13,5,7,0.0681818181818182
"623","56944c20e0c800000b59c13a","br",-13,19,1,242,6446,408190,"64de65bd32272b68914dd1d5",1,13,-26,5,8,0.0537190082644628
"624","56944c20e0c800000b59c13a","br",-22,-1,1,299,3735,411926,"64de65bd32272b68914dd1d5",1,4,-28,5,9,0.0735785953177258
"625","56944c20e0c800000b59c13a","br",-13,28,1,286,6679,418606,"64de65bd32272b68914dd1d5",1,-3,-13,5,10,0.0454545454545455
"626","56944c20e0c800000b59c13a","br",-17,-2,1,286,5883,424496,"64de65bd32272b68914dd1d5",1,7,-12,5,11,0.0594405594405594
"627","56944c20e0c800000b59c13a","br",-20,-12,1,255,5541,430038,"64de65bd32272b68914dd1d5",1,12,-21,5,12,0.0784313725490196
"628","56944c20e0c800000b59c13a","br",-15,1,1,289,3871,433910,"64de65bd32272b68914dd1d5",1,24,27,5,13,0.0519031141868512
"629","56944c20e0c800000b59c13a","br",-20,5,1,232,5431,439343,"64de65bd32272b68914dd1d5",1,-30,13,5,14,0.0862068965517241
"630","56944c20e0c800000b59c13a","br",-26,-25,1,202,1431,440775,"64de65bd32272b68914dd1d5",1,-29,29,5,15,0.128712871287129
"631","56944c20e0c800000b59c13a","pz",29,38,2,36,6181,503381,"64de65bd32272b68914dd1d5",1,NA,NA,5,1,0.194444444444444
"632","56944c20e0c800000b59c13a","pz",23,54,2,28,6839,510221,"64de65bd32272b68914dd1d5",1,NA,NA,5,2,0.178571428571429
"633","56944c20e0c800000b59c13a","pz",27,39,2,41,5247,515469,"64de65bd32272b68914dd1d5",1,NA,NA,5,3,0.341463414634146
"634","56944c20e0c800000b59c13a","pz",19,29,2,26,4278,519749,"64de65bd32272b68914dd1d5",1,NA,NA,5,4,0.269230769230769
"635","56944c20e0c800000b59c13a","pz",21,40,2,27,5087,524837,"64de65bd32272b68914dd1d5",1,NA,NA,5,5,0.222222222222222
"636","56944c20e0c800000b59c13a","pz",30,54,2,49,8000,532839,"64de65bd32272b68914dd1d5",1,NA,NA,5,6,0.387755102040816
"637","56944c20e0c800000b59c13a","pz",36,36,2,46,965,533805,"64de65bd32272b68914dd1d5",1,NA,NA,5,7,0.217391304347826
"638","56944c20e0c800000b59c13a","pz",32,55,2,41,5392,539199,"64de65bd32272b68914dd1d5",1,NA,NA,5,8,0.219512195121951
"639","56944c20e0c800000b59c13a","pz",32,59,2,42,5006,544206,"64de65bd32272b68914dd1d5",1,NA,NA,5,9,0.238095238095238
"640","56944c20e0c800000b59c13a","pz",24,60,2,28,4830,549038,"64de65bd32272b68914dd1d5",1,NA,NA,5,10,0.142857142857143
"641","56944c20e0c800000b59c13a","pz",29,22,2,44,2991,552030,"64de65bd32272b68914dd1d5",1,NA,NA,5,11,0.340909090909091
"642","56944c20e0c800000b59c13a","pz",28,49,2,38,5558,557590,"64de65bd32272b68914dd1d5",1,NA,NA,5,12,0.263157894736842
"643","56944c20e0c800000b59c13a","pz",38,28,2,50,3719,561310,"64de65bd32272b68914dd1d5",1,NA,NA,5,13,0.24
"644","56944c20e0c800000b59c13a","pz",30,29,2,41,2888,564199,"64de65bd32272b68914dd1d5",1,NA,NA,5,14,0.268292682926829
"645","56944c20e0c800000b59c13a","pz",42,51,2,57,3934,568134,"64de65bd32272b68914dd1d5",1,NA,NA,5,15,0.263157894736842
"646","56944c20e0c800000b59c13a","pog",346,280,2,356,8000,623960,"64de65bd32272b68914dd1d5",1,0,0,5,1,10
"647","56944c20e0c800000b59c13a","pog",363,327,2,369,8000,631962,"64de65bd32272b68914dd1d5",1,0,0,5,2,6
"648","56944c20e0c800000b59c13a","pog",305,341,2,317,4659,636622,"64de65bd32272b68914dd1d5",1,0,0,5,3,12
"649","56944c20e0c800000b59c13a","pog",363,391,2,365,3854,640477,"64de65bd32272b68914dd1d5",1,0,0,5,4,2
"650","56944c20e0c800000b59c13a","pog",372,320,2,374,5639,646117,"64de65bd32272b68914dd1d5",1,0,0,5,5,2
"651","56944c20e0c800000b59c13a","pog",303,355,2,309,5615,651733,"64de65bd32272b68914dd1d5",1,0,0,5,6,6
"652","56944c20e0c800000b59c13a","pog",299,315,2,303,2559,654293,"64de65bd32272b68914dd1d5",1,0,0,5,7,4
"653","56944c20e0c800000b59c13a","pog",378,398,2,379,3841,658136,"64de65bd32272b68914dd1d5",1,0,0,5,8,1
"654","56944c20e0c800000b59c13a","pog",368,282,2,368,5589,663726,"64de65bd32272b68914dd1d5",1,0,0,5,9,0
"655","56944c20e0c800000b59c13a","pog",346,322,2,342,3791,667517,"64de65bd32272b68914dd1d5",1,0,0,5,10,-4
"656","56944c20e0c800000b59c13a","pog",319,303,2,320,3519,671037,"64de65bd32272b68914dd1d5",1,0,0,5,11,1
"657","56944c20e0c800000b59c13a","pog",371,305,2,368,5719,676757,"64de65bd32272b68914dd1d5",1,0,0,5,12,-3
"658","56944c20e0c800000b59c13a","pog",347,319,2,348,4751,681509,"64de65bd32272b68914dd1d5",1,0,0,5,13,1
"659","56944c20e0c800000b59c13a","pog",304,306,2,314,4127,685638,"64de65bd32272b68914dd1d5",1,0,0,5,14,10
"660","56944c20e0c800000b59c13a","pog",346,364,2,348,5015,690653,"64de65bd32272b68914dd1d5",1,0,0,5,15,2
"661","56944c20e0c800000b59c13a","zol",-1.38,0.38,2,NA,5535,742141,"64de65bd32272b68914dd1d5",1,29,14,5,1,1.38
"662","56944c20e0c800000b59c13a","zol",-1.57,0.47,2,NA,6567,748709,"64de65bd32272b68914dd1d5",1,-10,6,5,2,1.57
"663","56944c20e0c800000b59c13a","zol",-1.82,0.62,2,NA,5381,754092,"64de65bd32272b68914dd1d5",1,-21,-17,5,3,1.82
"664","56944c20e0c800000b59c13a","zol",-1.13,-0.57,2,NA,5560,759653,"64de65bd32272b68914dd1d5",1,22,20,5,4,1.13
"665","56944c20e0c800000b59c13a","zol",-1.46,0.46,2,NA,8000,767654,"64de65bd32272b68914dd1d5",1,-5,-17,5,5,1.46
"667","56944c20e0c800000b59c13a","zol",-1.31,-0.69,2,NA,6671,774541,"64de65bd32272b68914dd1d5",1,18,16,5,7,1.31
"668","56944c20e0c800000b59c13a","zol",-1.44,0.34,2,NA,4430,778973,"64de65bd32272b68914dd1d5",1,-18,-20,5,8,1.44
"669","56944c20e0c800000b59c13a","zol",-1.99,-0.21,2,NA,3999,782973,"64de65bd32272b68914dd1d5",1,16,2,5,9,1.99
"670","56944c20e0c800000b59c13a","zol",-1.82,0.22,2,NA,6030,789005,"64de65bd32272b68914dd1d5",1,-30,17,5,10,1.82
"671","56944c20e0c800000b59c13a","zol",-2.29,-0.61,2,NA,5134,794141,"64de65bd32272b68914dd1d5",1,-11,-23,5,11,2.29
"672","56944c20e0c800000b59c13a","zol",-2.73,0.53,2,NA,5462,799604,"64de65bd32272b68914dd1d5",1,-19,29,5,12,2.73
"673","56944c20e0c800000b59c13a","zol",-1.68,-0.12,2,NA,4391,803997,"64de65bd32272b68914dd1d5",1,-3,-26,5,13,1.68
"674","56944c20e0c800000b59c13a","zol",-1.52,-0.68,2,NA,4231,808230,"64de65bd32272b68914dd1d5",1,17,-2,5,14,1.52
"675","56944c20e0c800000b59c13a","zol",-1.72,-0.18,2,NA,3541,811773,"64de65bd32272b68914dd1d5",1,27,3,5,15,1.72
"676","56944c20e0c800000b59c13a","pz",39,53,1,23,4756,846332,"64de65bd32272b68914dd1d5",2,NA,NA,5,1,0.695652173913043
"677","56944c20e0c800000b59c13a","pz",41,26,1,28,5223,851556,"64de65bd32272b68914dd1d5",2,NA,NA,5,2,0.464285714285714
"678","56944c20e0c800000b59c13a","pz",43,31,1,29,5799,857356,"64de65bd32272b68914dd1d5",2,NA,NA,5,3,0.482758620689655
"679","56944c20e0c800000b59c13a","pz",46,49,1,35,2096,859453,"64de65bd32272b68914dd1d5",2,NA,NA,5,4,0.314285714285714
"680","56944c20e0c800000b59c13a","pz",73,26,1,57,6798,866252,"64de65bd32272b68914dd1d5",2,NA,NA,5,5,0.280701754385965
"681","56944c20e0c800000b59c13a","pz",60,22,1,44,5671,871924,"64de65bd32272b68914dd1d5",2,NA,NA,5,6,0.363636363636364
"682","56944c20e0c800000b59c13a","pz",68,27,1,53,5287,877212,"64de65bd32272b68914dd1d5",2,NA,NA,5,7,0.283018867924528
"683","56944c20e0c800000b59c13a","pz",64,28,1,56,5575,882789,"64de65bd32272b68914dd1d5",2,NA,NA,5,8,0.142857142857143
"684","56944c20e0c800000b59c13a","pz",57,37,1,45,2862,885652,"64de65bd32272b68914dd1d5",2,NA,NA,5,9,0.266666666666667
"685","56944c20e0c800000b59c13a","pz",25,39,1,20,4911,890564,"64de65bd32272b68914dd1d5",2,NA,NA,5,10,0.25
"686","56944c20e0c800000b59c13a","pz",67,36,1,58,7296,897862,"64de65bd32272b68914dd1d5",2,NA,NA,5,11,0.155172413793103
"687","56944c20e0c800000b59c13a","pz",25,45,1,20,6942,904805,"64de65bd32272b68914dd1d5",2,NA,NA,5,12,0.25
"688","56944c20e0c800000b59c13a","pz",65,31,1,57,7398,912205,"64de65bd32272b68914dd1d5",2,NA,NA,5,13,0.140350877192982
"689","56944c20e0c800000b59c13a","pz",50,56,1,49,2431,914636,"64de65bd32272b68914dd1d5",2,NA,NA,5,14,0.0204081632653061
"690","56944c20e0c800000b59c13a","pz",34,34,1,29,3912,918549,"64de65bd32272b68914dd1d5",2,NA,NA,5,15,0.172413793103448
"691","56944c20e0c800000b59c13a","eb",44,31,1,54,7022,949941,"64de65bd32272b68914dd1d5",2,0,0,5,1,0.185185185185185
"692","56944c20e0c800000b59c13a","eb",23,32,1,26,3727,953669,"64de65bd32272b68914dd1d5",2,0,0,5,2,0.115384615384615
"693","56944c20e0c800000b59c13a","eb",24,45,1,30,7135,960804,"64de65bd32272b68914dd1d5",2,0,0,5,3,0.2
"694","56944c20e0c800000b59c13a","eb",24,24,1,29,1551,962356,"64de65bd32272b68914dd1d5",2,0,0,5,4,0.172413793103448
"695","56944c20e0c800000b59c13a","eb",25,54,1,30,6207,968564,"64de65bd32272b68914dd1d5",2,0,0,5,5,0.166666666666667
"696","56944c20e0c800000b59c13a","eb",25,43,1,26,5851,974416,"64de65bd32272b68914dd1d5",2,0,0,5,6,0.0384615384615385
"697","56944c20e0c800000b59c13a","eb",28,24,1,48,7067,981484,"64de65bd32272b68914dd1d5",2,0,0,5,7,0.416666666666667
"698","56944c20e0c800000b59c13a","eb",27,27,1,35,5087,986573,"64de65bd32272b68914dd1d5",2,0,0,5,8,0.228571428571429
"699","56944c20e0c800000b59c13a","eb",30,46,1,44,7246,993821,"64de65bd32272b68914dd1d5",2,0,0,5,9,0.318181818181818
"700","56944c20e0c800000b59c13a","eb",26,29,1,29,3479,997301,"64de65bd32272b68914dd1d5",2,0,0,5,10,0.103448275862069
"701","56944c20e0c800000b59c13a","eb",35,54,1,46,6201,1003503,"64de65bd32272b68914dd1d5",2,0,0,5,11,0.239130434782609
"702","56944c20e0c800000b59c13a","eb",36,35,1,48,1435,1004940,"64de65bd32272b68914dd1d5",2,0,0,5,12,0.25
"703","56944c20e0c800000b59c13a","eb",31,54,1,40,5048,1009989,"64de65bd32272b68914dd1d5",2,0,0,5,13,0.225
"704","56944c20e0c800000b59c13a","eb",31,33,1,35,2109,1012100,"64de65bd32272b68914dd1d5",2,0,0,5,14,0.114285714285714
"705","56944c20e0c800000b59c13a","eb",41,30,1,51,3303,1015404,"64de65bd32272b68914dd1d5",2,0,0,5,15,0.196078431372549
"706","56944c20e0c800000b59c13a","zol",1.74,-0.34,1,NA,3271,1043444,"64de65bd32272b68914dd1d5",2,-19,-18,5,1,1.74
"707","56944c20e0c800000b59c13a","zol",2.32,-0.12,1,NA,4070,1047516,"64de65bd32272b68914dd1d5",2,27,22,5,2,2.32
"708","56944c20e0c800000b59c13a","zol",2.7,-0.3,1,NA,5071,1052588,"64de65bd32272b68914dd1d5",2,12,23,5,3,2.7
"709","56944c20e0c800000b59c13a","zol",1.62,0.28,1,NA,7254,1059852,"64de65bd32272b68914dd1d5",2,-15,-4,5,4,1.62
"710","56944c20e0c800000b59c13a","zol",1.72,0.58,1,NA,3184,1063037,"64de65bd32272b68914dd1d5",2,-1,20,5,5,1.72
"711","56944c20e0c800000b59c13a","zol",2.22,0.28,1,NA,3605,1066644,"64de65bd32272b68914dd1d5",2,-30,-17,5,6,2.22
"712","56944c20e0c800000b59c13a","zol",1.6,0.1,1,NA,7142,1073788,"64de65bd32272b68914dd1d5",2,23,-18,5,7,1.6
"713","56944c20e0c800000b59c13a","zol",2.22,-0.42,1,NA,5007,1078795,"64de65bd32272b68914dd1d5",2,-15,-4,5,8,2.22
"714","56944c20e0c800000b59c13a","zol",1.73,-0.53,1,NA,2230,1081027,"64de65bd32272b68914dd1d5",2,-16,2,5,9,1.73
"715","56944c20e0c800000b59c13a","zol",1.19,0.71,1,NA,3079,1084107,"64de65bd32272b68914dd1d5",2,-22,17,5,10,1.19
"716","56944c20e0c800000b59c13a","zol",1.42,0.68,1,NA,3398,1087507,"64de65bd32272b68914dd1d5",2,-1,-14,5,11,1.42
"717","56944c20e0c800000b59c13a","zol",2.28,0.22,1,NA,3718,1091227,"64de65bd32272b68914dd1d5",2,-9,-18,5,12,2.28
"718","56944c20e0c800000b59c13a","zol",1.74,-0.24,1,NA,3327,1094555,"64de65bd32272b68914dd1d5",2,17,23,5,13,1.74
"719","56944c20e0c800000b59c13a","zol",1.99,-0.29,1,NA,6046,1100613,"64de65bd32272b68914dd1d5",2,10,26,5,14,1.99
"720","56944c20e0c800000b59c13a","zol",1.54,0.06,1,NA,2506,1103123,"64de65bd32272b68914dd1d5",2,-29,-19,5,15,1.54
"721","56944c20e0c800000b59c13a","pog",169,167,1,163,4854,1123219,"64de65bd32272b68914dd1d5",2,0,0,5,1,6
"722","56944c20e0c800000b59c13a","pog",140,214,1,139,4937,1128157,"64de65bd32272b68914dd1d5",2,0,0,5,2,1
"723","56944c20e0c800000b59c13a","pog",166,120,1,161,4221,1132379,"64de65bd32272b68914dd1d5",2,0,0,5,3,5
"724","56944c20e0c800000b59c13a","pog",197,187,1,190,3719,1136099,"64de65bd32272b68914dd1d5",2,0,0,5,4,7
"725","56944c20e0c800000b59c13a","pog",129,197,1,133,7000,1143100,"64de65bd32272b68914dd1d5",2,0,0,5,5,-4
"726","56944c20e0c800000b59c13a","pog",138,176,1,133,4094,1147195,"64de65bd32272b68914dd1d5",2,0,0,5,6,5
"727","56944c20e0c800000b59c13a","pog",152,136,1,148,5696,1152892,"64de65bd32272b68914dd1d5",2,0,0,5,7,4
"728","56944c20e0c800000b59c13a","pog",153,159,1,144,2383,1155276,"64de65bd32272b68914dd1d5",2,0,0,5,8,9
"729","56944c20e0c800000b59c13a","pog",144,154,1,138,2903,1158180,"64de65bd32272b68914dd1d5",2,0,0,5,9,6
"730","56944c20e0c800000b59c13a","pog",176,122,1,170,5423,1163603,"64de65bd32272b68914dd1d5",2,0,0,5,10,6
"731","56944c20e0c800000b59c13a","pog",123,181,1,122,4136,1167741,"64de65bd32272b68914dd1d5",2,0,0,5,11,1
"732","56944c20e0c800000b59c13a","pog",188,168,1,185,4549,1172292,"64de65bd32272b68914dd1d5",2,0,0,5,12,3
"733","56944c20e0c800000b59c13a","pog",206,150,1,197,4687,1176980,"64de65bd32272b68914dd1d5",2,0,0,5,13,9
"734","56944c20e0c800000b59c13a","pog",187,135,1,182,5255,1182236,"64de65bd32272b68914dd1d5",2,0,0,5,14,5
"735","56944c20e0c800000b59c13a","pog",195,141,1,194,5591,1187827,"64de65bd32272b68914dd1d5",2,0,0,5,15,1
"736","56944c20e0c800000b59c13a","br",18,-25,2,266,8000,1204933,"64de65bd32272b68914dd1d5",2,26,6,5,1,0.0676691729323308
"737","56944c20e0c800000b59c13a","br",10,-16,2,273,4158,1209092,"64de65bd32272b68914dd1d5",2,22,4,5,2,0.0366300366300366
"738","56944c20e0c800000b59c13a","br",13,-27,2,207,4829,1213923,"64de65bd32272b68914dd1d5",2,19,-8,5,3,0.0628019323671498
"739","56944c20e0c800000b59c13a","br",17,11,2,217,2791,1216715,"64de65bd32272b68914dd1d5",2,23,-25,5,4,0.0783410138248848
"740","56944c20e0c800000b59c13a","br",9,-5,2,219,2343,1219059,"64de65bd32272b68914dd1d5",2,4,-8,5,5,0.0410958904109589
"741","56944c20e0c800000b59c13a","br",7,-12,2,294,3471,1222531,"64de65bd32272b68914dd1d5",2,-10,-15,5,6,0.0238095238095238
"742","56944c20e0c800000b59c13a","br",20,19,2,206,1454,1223986,"64de65bd32272b68914dd1d5",2,23,-4,5,7,0.0970873786407767
"743","56944c20e0c800000b59c13a","br",22,27,2,236,2135,1226123,"64de65bd32272b68914dd1d5",2,17,-13,5,8,0.0932203389830508
"744","56944c20e0c800000b59c13a","br",17,10,2,227,1911,1228034,"64de65bd32272b68914dd1d5",2,-16,-23,5,9,0.0748898678414097
"745","56944c20e0c800000b59c13a","br",25,25,2,245,1623,1229659,"64de65bd32272b68914dd1d5",2,8,27,5,10,0.102040816326531
"746","56944c20e0c800000b59c13a","br",20,-3,2,202,4748,1234411,"64de65bd32272b68914dd1d5",2,-20,-14,5,11,0.099009900990099
"747","56944c20e0c800000b59c13a","br",18,18,2,207,1913,1236325,"64de65bd32272b68914dd1d5",2,-3,-9,5,12,0.0869565217391304
"748","56944c20e0c800000b59c13a","br",27,30,2,240,1860,1238186,"64de65bd32272b68914dd1d5",2,-6,9,5,13,0.1125
"749","56944c20e0c800000b59c13a","br",15,5,2,280,3576,1241764,"64de65bd32272b68914dd1d5",2,-5,16,5,14,0.0535714285714286
"750","56944c20e0c800000b59c13a","br",21,-16,2,214,5382,1247146,"64de65bd32272b68914dd1d5",2,14,-28,5,15,0.0981308411214953
"751","5765dffd7805730001ecfcd0","pz",24,43,2,30,6779,418397,"64e50b4d46975887ae7ca174",1,NA,NA,6,1,0.2
"752","5765dffd7805730001ecfcd0","pz",41,53,2,49,5051,423450,"64e50b4d46975887ae7ca174",1,NA,NA,6,2,0.163265306122449
"753","5765dffd7805730001ecfcd0","pz",43,25,2,49,7355,430807,"64e50b4d46975887ae7ca174",1,NA,NA,6,3,0.122448979591837
"754","5765dffd7805730001ecfcd0","pz",25,25,2,32,2749,433558,"64e50b4d46975887ae7ca174",1,NA,NA,6,4,0.21875
"755","5765dffd7805730001ecfcd0","pz",33,34,2,37,3860,437420,"64e50b4d46975887ae7ca174",1,NA,NA,6,5,0.108108108108108
"756","5765dffd7805730001ecfcd0","pz",21,21,2,28,2142,439563,"64e50b4d46975887ae7ca174",1,NA,NA,6,6,0.25
"757","5765dffd7805730001ecfcd0","pz",43,38,2,57,4116,443681,"64e50b4d46975887ae7ca174",1,NA,NA,6,7,0.245614035087719
"758","5765dffd7805730001ecfcd0","pz",49,24,2,59,7659,451341,"64e50b4d46975887ae7ca174",1,NA,NA,6,8,0.169491525423729
"759","5765dffd7805730001ecfcd0","pz",34,35,2,41,1893,453237,"64e50b4d46975887ae7ca174",1,NA,NA,6,9,0.170731707317073
"760","5765dffd7805730001ecfcd0","pz",43,43,2,52,1334,454571,"64e50b4d46975887ae7ca174",1,NA,NA,6,10,0.173076923076923
"761","5765dffd7805730001ecfcd0","pz",27,39,2,31,3397,457970,"64e50b4d46975887ae7ca174",1,NA,NA,6,11,0.129032258064516
"762","5765dffd7805730001ecfcd0","pz",33,57,2,38,7100,465078,"64e50b4d46975887ae7ca174",1,NA,NA,6,12,0.131578947368421
"763","5765dffd7805730001ecfcd0","pz",26,40,2,30,6491,471571,"64e50b4d46975887ae7ca174",1,NA,NA,6,13,0.133333333333333
"764","5765dffd7805730001ecfcd0","pz",27,42,2,27,4564,476137,"64e50b4d46975887ae7ca174",1,NA,NA,6,14,0
"765","5765dffd7805730001ecfcd0","pz",35,50,2,42,5132,481271,"64e50b4d46975887ae7ca174",1,NA,NA,6,15,0.166666666666667
"766","5765dffd7805730001ecfcd0","eb",43,36,1,48,8000,690786,"64e50b4d46975887ae7ca174",1,0,0,6,1,0.104166666666667
"767","5765dffd7805730001ecfcd0","eb",26,25,1,25,2216,693004,"64e50b4d46975887ae7ca174",1,0,0,6,2,-0.04
"768","5765dffd7805730001ecfcd0","eb",47,40,1,50,4275,697282,"64e50b4d46975887ae7ca174",1,0,0,6,3,0.06
"769","5765dffd7805730001ecfcd0","eb",27,27,1,28,2429,699713,"64e50b4d46975887ae7ca174",1,0,0,6,4,0.0357142857142857
"770","5765dffd7805730001ecfcd0","eb",34,52,1,33,5516,705231,"64e50b4d46975887ae7ca174",1,0,0,6,5,-0.0303030303030303
"771","5765dffd7805730001ecfcd0","eb",33,42,1,34,3132,708365,"64e50b4d46975887ae7ca174",1,0,0,6,6,0.0294117647058824
"772","5765dffd7805730001ecfcd0","eb",47,39,1,48,3860,712227,"64e50b4d46975887ae7ca174",1,0,0,6,7,0.0208333333333333
"773","5765dffd7805730001ecfcd0","eb",31,38,1,30,4062,716290,"64e50b4d46975887ae7ca174",1,0,0,6,8,-0.0333333333333333
"774","5765dffd7805730001ecfcd0","eb",36,50,1,32,4275,720567,"64e50b4d46975887ae7ca174",1,0,0,6,9,-0.125
"775","5765dffd7805730001ecfcd0","eb",39,52,1,39,5092,725661,"64e50b4d46975887ae7ca174",1,0,0,6,10,0
"776","5765dffd7805730001ecfcd0","eb",30,39,1,32,3133,728796,"64e50b4d46975887ae7ca174",1,0,0,6,11,0.0625
"777","5765dffd7805730001ecfcd0","eb",44,29,1,45,6563,735361,"64e50b4d46975887ae7ca174",1,0,0,6,12,0.0222222222222222
"778","5765dffd7805730001ecfcd0","eb",39,51,1,41,7635,742998,"64e50b4d46975887ae7ca174",1,0,0,6,13,0.048780487804878
"779","5765dffd7805730001ecfcd0","eb",48,28,1,50,7410,750409,"64e50b4d46975887ae7ca174",1,0,0,6,14,0.04
"780","5765dffd7805730001ecfcd0","eb",50,28,1,52,8000,758411,"64e50b4d46975887ae7ca174",1,0,0,6,15,0.0384615384615385
"781","5765dffd7805730001ecfcd0","pog",193,165,1,179,6995,791599,"64e50b4d46975887ae7ca174",1,0,0,6,1,14
"782","5765dffd7805730001ecfcd0","pog",174,210,1,155,6084,797684,"64e50b4d46975887ae7ca174",1,0,0,6,2,19
"783","5765dffd7805730001ecfcd0","pog",190,130,1,173,7043,804728,"64e50b4d46975887ae7ca174",1,0,0,6,3,17
"784","5765dffd7805730001ecfcd0","pog",137,135,1,124,3269,807999,"64e50b4d46975887ae7ca174",1,0,0,6,4,13
"785","5765dffd7805730001ecfcd0","pog",195,187,1,180,3661,811661,"64e50b4d46975887ae7ca174",1,0,0,6,5,15
"786","5765dffd7805730001ecfcd0","pog",152,128,1,138,4212,815875,"64e50b4d46975887ae7ca174",1,0,0,6,6,14
"787","5765dffd7805730001ecfcd0","pog",149,145,1,132,2598,818474,"64e50b4d46975887ae7ca174",1,0,0,6,7,17
"788","5765dffd7805730001ecfcd0","pog",170,176,1,149,2630,821105,"64e50b4d46975887ae7ca174",1,0,0,6,8,21
"789","5765dffd7805730001ecfcd0","pog",199,219,1,172,4125,825231,"64e50b4d46975887ae7ca174",1,0,0,6,9,27
"790","5765dffd7805730001ecfcd0","pog",190,152,1,172,5691,830924,"64e50b4d46975887ae7ca174",1,0,0,6,10,18
"791","5765dffd7805730001ecfcd0","pog",195,155,1,177,5372,836298,"64e50b4d46975887ae7ca174",1,0,0,6,11,18
"792","5765dffd7805730001ecfcd0","pog",161,103,1,147,5613,841911,"64e50b4d46975887ae7ca174",1,0,0,6,12,14
"793","5765dffd7805730001ecfcd0","pog",172,216,1,159,3853,845765,"64e50b4d46975887ae7ca174",1,0,0,6,13,13
"794","5765dffd7805730001ecfcd0","pog",201,173,1,184,4045,849811,"64e50b4d46975887ae7ca174",1,0,0,6,14,17
"795","5765dffd7805730001ecfcd0","pog",163,161,1,139,1471,851283,"64e50b4d46975887ae7ca174",1,0,0,6,15,24
"796","5765dffd7805730001ecfcd0","br",-17,-15,1,202,3868,897398,"64e50b4d46975887ae7ca174",1,20,-22,6,1,0.0841584158415842
"797","5765dffd7805730001ecfcd0","br",-16,28,1,255,6172,903571,"64e50b4d46975887ae7ca174",1,-21,6,6,2,0.0627450980392157
"798","5765dffd7805730001ecfcd0","br",-12,0,1,225,3948,907521,"64e50b4d46975887ae7ca174",1,14,-12,6,3,0.0533333333333333
"799","5765dffd7805730001ecfcd0","br",-13,0,1,298,5027,912550,"64e50b4d46975887ae7ca174",1,-17,-24,6,4,0.0436241610738255
"800","5765dffd7805730001ecfcd0","br",-14,15,1,230,8000,920552,"64e50b4d46975887ae7ca174",1,22,-11,6,5,0.0608695652173913
"801","5765dffd7805730001ecfcd0","br",-17,-24,1,252,2832,923385,"64e50b4d46975887ae7ca174",1,-20,-8,6,6,0.0674603174603175
"802","5765dffd7805730001ecfcd0","br",-15,6,1,246,3590,926977,"64e50b4d46975887ae7ca174",1,29,5,6,7,0.0609756097560976
"803","5765dffd7805730001ecfcd0","br",-6,15,1,272,6754,933732,"64e50b4d46975887ae7ca174",1,-29,-8,6,8,0.0220588235294118
"804","5765dffd7805730001ecfcd0","br",-5,28,1,264,3030,936763,"64e50b4d46975887ae7ca174",1,18,18,6,9,0.0189393939393939
"805","5765dffd7805730001ecfcd0","br",-13,-14,1,251,1628,938394,"64e50b4d46975887ae7ca174",1,11,-30,6,10,0.051792828685259
"806","5765dffd7805730001ecfcd0","br",25,25,1,237,8000,946396,"64e50b4d46975887ae7ca174",1,11,-14,6,11,-0.105485232067511
"807","5765dffd7805730001ecfcd0","br",-11,20,1,286,3839,950237,"64e50b4d46975887ae7ca174",1,19,-8,6,12,0.0384615384615385
"808","5765dffd7805730001ecfcd0","br",-14,4,1,245,3092,953331,"64e50b4d46975887ae7ca174",1,-21,-12,6,13,0.0571428571428571
"809","5765dffd7805730001ecfcd0","br",-13,4,1,203,5117,958449,"64e50b4d46975887ae7ca174",1,15,10,6,14,0.0640394088669951
"810","5765dffd7805730001ecfcd0","br",-14,-30,1,249,3422,961872,"64e50b4d46975887ae7ca174",1,-15,-10,6,15,0.0562248995983936
"811","5765dffd7805730001ecfcd0","zol",0.4,-0.7,1,NA,5147,999189,"64e50b4d46975887ae7ca174",1,29,-8,6,1,0.4
"812","5765dffd7805730001ecfcd0","zol",-0.03,-0.37,1,NA,4868,1004059,"64e50b4d46975887ae7ca174",1,13,2,6,2,-0.03
"813","5765dffd7805730001ecfcd0","zol",0.9,0,1,NA,7514,1011575,"64e50b4d46975887ae7ca174",1,-10,-15,6,3,0.9
"814","5765dffd7805730001ecfcd0","zol",0.8,-0.2,1,NA,5148,1016725,"64e50b4d46975887ae7ca174",1,19,-14,6,4,0.8
"815","5765dffd7805730001ecfcd0","zol",1.28,0.22,1,NA,5651,1022378,"64e50b4d46975887ae7ca174",1,-19,-9,6,5,1.28
"816","5765dffd7805730001ecfcd0","zol",0.85,0.45,1,NA,4428,1026808,"64e50b4d46975887ae7ca174",1,-10,7,6,6,0.85
"817","5765dffd7805730001ecfcd0","zol",0.4,0.7,1,NA,3428,1030239,"64e50b4d46975887ae7ca174",1,-29,23,6,7,0.4
"818","5765dffd7805730001ecfcd0","zol",0.45,0.45,1,NA,5555,1035796,"64e50b4d46975887ae7ca174",1,6,-12,6,8,0.45
"819","5765dffd7805730001ecfcd0","zol",1.13,0.37,1,NA,6235,1042033,"64e50b4d46975887ae7ca174",1,-28,-22,6,9,1.13
"820","5765dffd7805730001ecfcd0","zol",0.95,-0.15,1,NA,3900,1045935,"64e50b4d46975887ae7ca174",1,5,-10,6,10,0.95
"821","5765dffd7805730001ecfcd0","zol",1.68,-0.18,1,NA,3805,1049742,"64e50b4d46975887ae7ca174",1,-19,-27,6,11,1.68
"822","5765dffd7805730001ecfcd0","zol",0.32,0.68,1,NA,4442,1054187,"64e50b4d46975887ae7ca174",1,19,10,6,12,0.32
"823","5765dffd7805730001ecfcd0","zol",0.97,-0.37,1,NA,5852,1060041,"64e50b4d46975887ae7ca174",1,30,21,6,13,0.97
"824","5765dffd7805730001ecfcd0","zol",1.45,-0.35,1,NA,8000,1068044,"64e50b4d46975887ae7ca174",1,-17,2,6,14,1.45
"825","5765dffd7805730001ecfcd0","zol",0.93,-0.73,1,NA,8000,1076047,"64e50b4d46975887ae7ca174",1,27,-19,6,15,0.93
"826","5765dffd7805730001ecfcd0","pz",54,23,1,44,5860,2353974,"64e50b4d46975887ae7ca174",2,NA,NA,6,1,0.227272727272727
"827","5765dffd7805730001ecfcd0","pz",40,30,1,33,3812,2357788,"64e50b4d46975887ae7ca174",2,NA,NA,6,2,0.212121212121212
"828","5765dffd7805730001ecfcd0","pz",57,27,1,45,3365,2361155,"64e50b4d46975887ae7ca174",2,NA,NA,6,3,0.266666666666667
"829","5765dffd7805730001ecfcd0","pz",39,38,1,30,1774,2362930,"64e50b4d46975887ae7ca174",2,NA,NA,6,4,0.3
"830","5765dffd7805730001ecfcd0","pz",33,58,1,24,3701,2366632,"64e50b4d46975887ae7ca174",2,NA,NA,6,5,0.375
"831","5765dffd7805730001ecfcd0","pz",45,20,1,36,4293,2370926,"64e50b4d46975887ae7ca174",2,NA,NA,6,6,0.25
"832","5765dffd7805730001ecfcd0","pz",67,53,1,55,2813,2373741,"64e50b4d46975887ae7ca174",2,NA,NA,6,7,0.218181818181818
"833","5765dffd7805730001ecfcd0","pz",47,39,1,43,2684,2376427,"64e50b4d46975887ae7ca174",2,NA,NA,6,8,0.0930232558139535
"834","5765dffd7805730001ecfcd0","pz",33,21,1,27,2598,2379027,"64e50b4d46975887ae7ca174",2,NA,NA,6,9,0.222222222222222
"835","5765dffd7805730001ecfcd0","pz",68,44,1,54,3069,2382097,"64e50b4d46975887ae7ca174",2,NA,NA,6,10,0.259259259259259
"836","5765dffd7805730001ecfcd0","pz",72,20,1,58,8000,2390099,"64e50b4d46975887ae7ca174",2,NA,NA,6,11,0.241379310344828
"837","5765dffd7805730001ecfcd0","pz",40,35,1,30,2872,2392972,"64e50b4d46975887ae7ca174",2,NA,NA,6,12,0.333333333333333
"838","5765dffd7805730001ecfcd0","pz",57,26,1,45,5019,2397993,"64e50b4d46975887ae7ca174",2,NA,NA,6,13,0.266666666666667
"839","5765dffd7805730001ecfcd0","pz",71,41,1,56,3757,2401751,"64e50b4d46975887ae7ca174",2,NA,NA,6,14,0.267857142857143
"840","5765dffd7805730001ecfcd0","pz",30,29,1,20,3037,2404790,"64e50b4d46975887ae7ca174",2,NA,NA,6,15,0.5
"841","5765dffd7805730001ecfcd0","eb",41,38,2,33,3869,2428787,"64e50b4d46975887ae7ca174",2,0,0,6,1,0.242424242424242
"842","5765dffd7805730001ecfcd0","eb",31,51,2,25,4277,2433065,"64e50b4d46975887ae7ca174",2,0,0,6,2,0.24
"843","5765dffd7805730001ecfcd0","eb",57,28,2,50,4636,2437703,"64e50b4d46975887ae7ca174",2,0,0,6,3,0.14
"844","5765dffd7805730001ecfcd0","eb",52,24,2,45,3948,2441653,"64e50b4d46975887ae7ca174",2,0,0,6,4,0.155555555555556
"845","5765dffd7805730001ecfcd0","eb",36,38,2,29,2638,2444292,"64e50b4d46975887ae7ca174",2,0,0,6,5,0.241379310344828
"846","5765dffd7805730001ecfcd0","eb",52,26,2,44,3084,2447378,"64e50b4d46975887ae7ca174",2,0,0,6,6,0.181818181818182
"847","5765dffd7805730001ecfcd0","eb",39,25,2,30,3052,2450433,"64e50b4d46975887ae7ca174",2,0,0,6,7,0.3
"848","5765dffd7805730001ecfcd0","eb",35,39,2,28,2094,2452528,"64e50b4d46975887ae7ca174",2,0,0,6,8,0.25
"849","5765dffd7805730001ecfcd0","eb",28,25,2,25,1957,2454487,"64e50b4d46975887ae7ca174",2,0,0,6,9,0.12
"850","5765dffd7805730001ecfcd0","eb",39,32,2,33,1957,2456446,"64e50b4d46975887ae7ca174",2,0,0,6,10,0.181818181818182
"851","5765dffd7805730001ecfcd0","eb",51,29,2,43,6443,2462891,"64e50b4d46975887ae7ca174",2,0,0,6,11,0.186046511627907
"852","5765dffd7805730001ecfcd0","eb",55,32,2,48,6355,2469248,"64e50b4d46975887ae7ca174",2,0,0,6,12,0.145833333333333
"853","5765dffd7805730001ecfcd0","eb",37,32,2,31,2294,2471543,"64e50b4d46975887ae7ca174",2,0,0,6,13,0.193548387096774
"854","5765dffd7805730001ecfcd0","eb",51,39,2,43,2717,2474262,"64e50b4d46975887ae7ca174",2,0,0,6,14,0.186046511627907
"855","5765dffd7805730001ecfcd0","eb",57,28,2,45,4572,2478836,"64e50b4d46975887ae7ca174",2,0,0,6,15,0.266666666666667
"856","5765dffd7805730001ecfcd0","br",16,12,2,243,2820,2489998,"64e50b4d46975887ae7ca174",2,5,-17,6,1,0.065843621399177
"857","5765dffd7805730001ecfcd0","br",17,-14,2,224,2653,2492653,"64e50b4d46975887ae7ca174",2,27,26,6,2,0.0758928571428571
"858","5765dffd7805730001ecfcd0","br",22,-7,2,295,3454,2496108,"64e50b4d46975887ae7ca174",2,-27,-12,6,3,0.0745762711864407
"859","5765dffd7805730001ecfcd0","br",24,-17,2,255,4532,2500641,"64e50b4d46975887ae7ca174",2,-12,18,6,4,0.0941176470588235
"860","5765dffd7805730001ecfcd0","br",29,15,2,239,3029,2503672,"64e50b4d46975887ae7ca174",2,-12,3,6,5,0.121338912133891
"861","5765dffd7805730001ecfcd0","br",35,18,2,251,2454,2506127,"64e50b4d46975887ae7ca174",2,13,6,6,6,0.139442231075697
"862","5765dffd7805730001ecfcd0","br",21,5,2,214,3494,2509622,"64e50b4d46975887ae7ca174",2,-4,19,6,7,0.0981308411214953
"863","5765dffd7805730001ecfcd0","br",26,23,2,250,2405,2512028,"64e50b4d46975887ae7ca174",2,21,-4,6,8,0.104
"864","5765dffd7805730001ecfcd0","br",23,-14,2,221,4909,2516938,"64e50b4d46975887ae7ca174",2,3,24,6,9,0.104072398190045
"865","5765dffd7805730001ecfcd0","br",24,16,2,280,3494,2520433,"64e50b4d46975887ae7ca174",2,-28,-17,6,10,0.0857142857142857
"866","5765dffd7805730001ecfcd0","br",20,-1,2,285,3756,2524191,"64e50b4d46975887ae7ca174",2,-25,12,6,11,0.0701754385964912
"867","5765dffd7805730001ecfcd0","br",22,-14,2,226,3542,2527734,"64e50b4d46975887ae7ca174",2,-7,23,6,12,0.0973451327433628
"868","5765dffd7805730001ecfcd0","br",28,1,2,232,3205,2530940,"64e50b4d46975887ae7ca174",2,14,19,6,13,0.120689655172414
"869","5765dffd7805730001ecfcd0","br",29,4,2,278,3428,2534370,"64e50b4d46975887ae7ca174",2,18,10,6,14,0.10431654676259
"870","5765dffd7805730001ecfcd0","br",20,-7,2,209,2918,2537289,"64e50b4d46975887ae7ca174",2,16,-5,6,15,0.0956937799043062
"871","5765dffd7805730001ecfcd0","pog",360,386,2,370,5196,2577973,"64e50b4d46975887ae7ca174",2,0,0,6,1,10
"872","5765dffd7805730001ecfcd0","pog",317,325,2,328,4661,2582635,"64e50b4d46975887ae7ca174",2,0,0,6,2,11
"873","5765dffd7805730001ecfcd0","pog",327,389,2,343,4941,2587577,"64e50b4d46975887ae7ca174",2,0,0,6,3,16
"874","5765dffd7805730001ecfcd0","pog",302,344,2,328,4381,2591959,"64e50b4d46975887ae7ca174",2,0,0,6,4,26
"875","5765dffd7805730001ecfcd0","pog",302,336,2,321,3421,2595381,"64e50b4d46975887ae7ca174",2,0,0,6,5,19
"876","5765dffd7805730001ecfcd0","pog",293,307,2,312,2662,2598044,"64e50b4d46975887ae7ca174",2,0,0,6,6,19
"877","5765dffd7805730001ecfcd0","pog",313,365,2,323,3349,2601395,"64e50b4d46975887ae7ca174",2,0,0,6,7,10
"878","5765dffd7805730001ecfcd0","pog",308,306,2,324,1797,2603193,"64e50b4d46975887ae7ca174",2,0,0,6,8,16
"879","5765dffd7805730001ecfcd0","pog",352,328,2,365,3389,2606584,"64e50b4d46975887ae7ca174",2,0,0,6,9,13
"880","5765dffd7805730001ecfcd0","pog",336,308,2,357,3717,2610302,"64e50b4d46975887ae7ca174",2,0,0,6,10,21
"881","5765dffd7805730001ecfcd0","pog",344,370,2,366,2374,2612677,"64e50b4d46975887ae7ca174",2,0,0,6,11,22
"882","5765dffd7805730001ecfcd0","pog",354,340,2,375,4453,2617131,"64e50b4d46975887ae7ca174",2,0,0,6,12,21
"883","5765dffd7805730001ecfcd0","pog",328,282,2,359,4724,2621857,"64e50b4d46975887ae7ca174",2,0,0,6,13,31
"884","5765dffd7805730001ecfcd0","pog",347,393,2,370,5548,2627406,"64e50b4d46975887ae7ca174",2,0,0,6,14,23
"885","5765dffd7805730001ecfcd0","pog",278,282,2,302,3774,2631181,"64e50b4d46975887ae7ca174",2,0,0,6,15,24
"886","5765dffd7805730001ecfcd0","zol",-0.57,-0.13,2,NA,4388,2653890,"64e50b4d46975887ae7ca174",2,-7,-21,6,1,0.57
"887","5765dffd7805730001ecfcd0","zol",-0.97,0.57,2,NA,3333,2657225,"64e50b4d46975887ae7ca174",2,-15,-7,6,2,0.97
"888","5765dffd7805730001ecfcd0","zol",-0.8,-0.3,2,NA,3428,2660655,"64e50b4d46975887ae7ca174",2,-5,18,6,3,0.8
"889","5765dffd7805730001ecfcd0","zol",-1.08,0.68,2,NA,2796,2663453,"64e50b4d46975887ae7ca174",2,2,9,6,4,1.08
"890","5765dffd7805730001ecfcd0","zol",-0.92,0.62,2,NA,2973,2666428,"64e50b4d46975887ae7ca174",2,8,-11,6,5,0.92
"891","5765dffd7805730001ecfcd0","zol",-0.85,0.35,2,NA,3925,2670355,"64e50b4d46975887ae7ca174",2,-6,-28,6,6,0.85
"892","5765dffd7805730001ecfcd0","zol",-0.75,0.15,2,NA,3356,2673713,"64e50b4d46975887ae7ca174",2,2,7,6,7,0.75
"893","5765dffd7805730001ecfcd0","zol",-0.71,-0.39,2,NA,6555,2680270,"64e50b4d46975887ae7ca174",2,21,-2,6,8,0.71
"894","5765dffd7805730001ecfcd0","zol",-1.08,0.38,2,NA,5795,2686067,"64e50b4d46975887ae7ca174",2,27,16,6,9,1.08
"895","5765dffd7805730001ecfcd0","zol",-1.03,0.23,2,NA,4093,2690162,"64e50b4d46975887ae7ca174",2,-10,9,6,10,1.03
"896","5765dffd7805730001ecfcd0","zol",-0.79,0.09,2,NA,3060,2693224,"64e50b4d46975887ae7ca174",2,11,8,6,11,0.79
"897","5765dffd7805730001ecfcd0","zol",-1.06,0.66,2,NA,5043,2698269,"64e50b4d46975887ae7ca174",2,-5,15,6,12,1.06
"898","5765dffd7805730001ecfcd0","zol",-1.02,0.32,2,NA,5724,2703995,"64e50b4d46975887ae7ca174",2,-15,20,6,13,1.02
"899","5765dffd7805730001ecfcd0","zol",-1.37,0.47,2,NA,4748,2708745,"64e50b4d46975887ae7ca174",2,2,-10,6,14,1.37
"900","5765dffd7805730001ecfcd0","zol",-1.34,0.74,2,NA,2949,2711695,"64e50b4d46975887ae7ca174",2,12,-27,6,15,1.34
"901","57becf0ef93a2e0001ce7ce4","eb",45,30,2,39,3934,102144,"64de7c1e7248d561a0bfd9d6",1,0,0,7,1,0.153846153846154
"902","57becf0ef93a2e0001ce7ce4","eb",40,48,2,35,4736,106881,"64de7c1e7248d561a0bfd9d6",1,0,0,7,2,0.142857142857143
"903","57becf0ef93a2e0001ce7ce4","eb",62,38,2,54,4838,111721,"64de7c1e7248d561a0bfd9d6",1,0,0,7,3,0.148148148148148
"904","57becf0ef93a2e0001ce7ce4","eb",30,49,2,30,2911,114634,"64de7c1e7248d561a0bfd9d6",1,0,0,7,4,0
"905","57becf0ef93a2e0001ce7ce4","eb",54,47,2,46,3710,118344,"64de7c1e7248d561a0bfd9d6",1,0,0,7,5,0.173913043478261
"906","57becf0ef93a2e0001ce7ce4","eb",53,42,2,41,5304,123650,"64de7c1e7248d561a0bfd9d6",1,0,0,7,6,0.292682926829268
"907","57becf0ef93a2e0001ce7ce4","eb",35,34,2,32,3471,127121,"64de7c1e7248d561a0bfd9d6",1,0,0,7,7,0.09375
"908","57becf0ef93a2e0001ce7ce4","eb",44,48,2,36,2823,129946,"64de7c1e7248d561a0bfd9d6",1,0,0,7,8,0.222222222222222
"909","57becf0ef93a2e0001ce7ce4","eb",49,53,2,42,3463,133410,"64de7c1e7248d561a0bfd9d6",1,0,0,7,9,0.166666666666667
"910","57becf0ef93a2e0001ce7ce4","eb",57,34,2,50,5750,139163,"64de7c1e7248d561a0bfd9d6",1,0,0,7,10,0.14
"911","57becf0ef93a2e0001ce7ce4","eb",62,37,2,51,4303,143467,"64de7c1e7248d561a0bfd9d6",1,0,0,7,11,0.215686274509804
"912","57becf0ef93a2e0001ce7ce4","eb",40,40,2,36,4661,148131,"64de7c1e7248d561a0bfd9d6",1,0,0,7,12,0.111111111111111
"913","57becf0ef93a2e0001ce7ce4","eb",52,26,2,43,5230,153363,"64de7c1e7248d561a0bfd9d6",1,0,0,7,13,0.209302325581395
"914","57becf0ef93a2e0001ce7ce4","eb",40,36,2,37,5031,158396,"64de7c1e7248d561a0bfd9d6",1,0,0,7,14,0.0810810810810811
"915","57becf0ef93a2e0001ce7ce4","eb",57,28,2,52,3255,161652,"64de7c1e7248d561a0bfd9d6",1,0,0,7,15,0.0961538461538462
"916","57becf0ef93a2e0001ce7ce4","br",14,-20,2,227,3823,179101,"64de7c1e7248d561a0bfd9d6",1,-2,2,7,1,0.0616740088105727
"917","57becf0ef93a2e0001ce7ce4","br",20,-27,2,288,3998,183101,"64de7c1e7248d561a0bfd9d6",1,28,25,7,2,0.0694444444444444
"918","57becf0ef93a2e0001ce7ce4","br",16,-25,2,259,3479,186581,"64de7c1e7248d561a0bfd9d6",1,-14,17,7,3,0.0617760617760618
"919","57becf0ef93a2e0001ce7ce4","br",22,22,2,236,2264,188846,"64de7c1e7248d561a0bfd9d6",1,29,-7,7,4,0.0932203389830508
"920","57becf0ef93a2e0001ce7ce4","br",19,-24,2,290,3495,192343,"64de7c1e7248d561a0bfd9d6",1,-13,5,7,5,0.0655172413793104
"921","57becf0ef93a2e0001ce7ce4","br",16,0,2,266,2405,194750,"64de7c1e7248d561a0bfd9d6",1,28,-19,7,6,0.0601503759398496
"922","57becf0ef93a2e0001ce7ce4","br",16,-15,2,239,3366,198120,"64de7c1e7248d561a0bfd9d6",1,14,8,7,7,0.0669456066945607
"923","57becf0ef93a2e0001ce7ce4","br",23,-27,2,294,4349,202470,"64de7c1e7248d561a0bfd9d6",1,-18,-12,7,8,0.0782312925170068
"924","57becf0ef93a2e0001ce7ce4","br",19,-18,2,252,3048,205520,"64de7c1e7248d561a0bfd9d6",1,-9,19,7,9,0.0753968253968254
"925","57becf0ef93a2e0001ce7ce4","br",20,10,2,245,2470,207991,"64de7c1e7248d561a0bfd9d6",1,-13,-5,7,10,0.0816326530612245
"926","57becf0ef93a2e0001ce7ce4","br",17,-15,2,211,3111,211104,"64de7c1e7248d561a0bfd9d6",1,-30,16,7,11,0.0805687203791469
"927","57becf0ef93a2e0001ce7ce4","br",18,23,2,299,2961,214072,"64de7c1e7248d561a0bfd9d6",1,18,20,7,12,0.0602006688963211
"928","57becf0ef93a2e0001ce7ce4","br",21,29,2,293,3326,217400,"64de7c1e7248d561a0bfd9d6",1,-1,-14,7,13,0.0716723549488055
"929","57becf0ef93a2e0001ce7ce4","br",15,-25,2,243,3767,221168,"64de7c1e7248d561a0bfd9d6",1,-2,-5,7,14,0.0617283950617284
"930","57becf0ef93a2e0001ce7ce4","br",21,11,2,245,2469,223640,"64de7c1e7248d561a0bfd9d6",1,29,-2,7,15,0.0857142857142857
"931","57becf0ef93a2e0001ce7ce4","zol",-1.14,0.14,2,NA,2871,245665,"64de7c1e7248d561a0bfd9d6",1,-16,13,7,1,1.14
"932","57becf0ef93a2e0001ce7ce4","zol",-1.15,-0.15,2,NA,4240,249906,"64de7c1e7248d561a0bfd9d6",1,-13,5,7,2,1.15
"933","57becf0ef93a2e0001ce7ce4","zol",-0.96,-0.04,2,NA,6302,256211,"64de7c1e7248d561a0bfd9d6",1,1,2,7,3,0.96
"934","57becf0ef93a2e0001ce7ce4","zol",-1.53,0.63,2,NA,4063,260276,"64de7c1e7248d561a0bfd9d6",1,9,28,7,4,1.53
"935","57becf0ef93a2e0001ce7ce4","zol",-0.79,-0.21,2,NA,6428,266707,"64de7c1e7248d561a0bfd9d6",1,3,20,7,5,0.79
"936","57becf0ef93a2e0001ce7ce4","zol",-0.53,0.53,2,NA,8000,274744,"64de7c1e7248d561a0bfd9d6",1,16,18,7,6,0.53
"937","57becf0ef93a2e0001ce7ce4","zol",-0.15,-0.35,2,NA,3370,278116,"64de7c1e7248d561a0bfd9d6",1,9,13,7,7,0.15
"938","57becf0ef93a2e0001ce7ce4","zol",-0.27,-0.63,2,NA,4927,283044,"64de7c1e7248d561a0bfd9d6",1,15,1,7,8,0.27
"939","57becf0ef93a2e0001ce7ce4","zol",-0.78,0.18,2,NA,3470,286517,"64de7c1e7248d561a0bfd9d6",1,-19,-23,7,9,0.78
"940","57becf0ef93a2e0001ce7ce4","zol",-0.97,-0.53,2,NA,6111,292629,"64de7c1e7248d561a0bfd9d6",1,-9,24,7,10,0.97
"941","57becf0ef93a2e0001ce7ce4","zol",-1.3,0,2,NA,6479,299109,"64de7c1e7248d561a0bfd9d6",1,-11,28,7,11,1.3
"942","57becf0ef93a2e0001ce7ce4","zol",-1.1,-0.6,2,NA,5127,304238,"64de7c1e7248d561a0bfd9d6",1,5,-28,7,12,1.1
"943","57becf0ef93a2e0001ce7ce4","zol",-1.53,0.43,2,NA,3139,307382,"64de7c1e7248d561a0bfd9d6",1,-29,29,7,13,1.53
"944","57becf0ef93a2e0001ce7ce4","zol",-1.43,0.33,2,NA,3175,310558,"64de7c1e7248d561a0bfd9d6",1,19,24,7,14,1.43
"945","57becf0ef93a2e0001ce7ce4","zol",-1.42,0.62,2,NA,4023,314591,"64de7c1e7248d561a0bfd9d6",1,-9,24,7,15,1.42
"946","57becf0ef93a2e0001ce7ce4","pz",26,42,1,21,4438,346457,"64de7c1e7248d561a0bfd9d6",1,NA,NA,7,1,0.238095238095238
"947","57becf0ef93a2e0001ce7ce4","pz",49,23,1,45,4870,351328,"64de7c1e7248d561a0bfd9d6",1,NA,NA,7,2,0.0888888888888889
"948","57becf0ef93a2e0001ce7ce4","pz",52,42,1,49,2096,353426,"64de7c1e7248d561a0bfd9d6",1,NA,NA,7,3,0.0612244897959184
"949","57becf0ef93a2e0001ce7ce4","pz",35,45,1,31,3188,356617,"64de7c1e7248d561a0bfd9d6",1,NA,NA,7,4,0.129032258064516
"950","57becf0ef93a2e0001ce7ce4","pz",48,25,1,43,3039,359658,"64de7c1e7248d561a0bfd9d6",1,NA,NA,7,5,0.116279069767442
"951","57becf0ef93a2e0001ce7ce4","pz",36,54,1,32,4615,364274,"64de7c1e7248d561a0bfd9d6",1,NA,NA,7,6,0.125
"952","57becf0ef93a2e0001ce7ce4","pz",58,33,1,56,3223,367498,"64de7c1e7248d561a0bfd9d6",1,NA,NA,7,7,0.0357142857142857
"953","57becf0ef93a2e0001ce7ce4","pz",25,31,1,23,2495,369995,"64de7c1e7248d561a0bfd9d6",1,NA,NA,7,8,0.0869565217391304
"954","57becf0ef93a2e0001ce7ce4","pz",56,45,1,50,2101,372099,"64de7c1e7248d561a0bfd9d6",1,NA,NA,7,9,0.12
"955","57becf0ef93a2e0001ce7ce4","pz",62,28,1,53,3102,375203,"64de7c1e7248d561a0bfd9d6",1,NA,NA,7,10,0.169811320754717
"956","57becf0ef93a2e0001ce7ce4","pz",60,34,1,49,4094,379298,"64de7c1e7248d561a0bfd9d6",1,NA,NA,7,11,0.224489795918367
"957","57becf0ef93a2e0001ce7ce4","pz",50,53,1,46,3102,382403,"64de7c1e7248d561a0bfd9d6",1,NA,NA,7,12,0.0869565217391304
"958","57becf0ef93a2e0001ce7ce4","pz",33,39,1,27,2906,385315,"64de7c1e7248d561a0bfd9d6",1,NA,NA,7,13,0.222222222222222
"959","57becf0ef93a2e0001ce7ce4","pz",37,43,1,27,2486,387804,"64de7c1e7248d561a0bfd9d6",1,NA,NA,7,14,0.37037037037037
"960","57becf0ef93a2e0001ce7ce4","pz",66,56,1,48,2078,389884,"64de7c1e7248d561a0bfd9d6",1,NA,NA,7,15,0.375
"961","57becf0ef93a2e0001ce7ce4","pog",296,312,2,318,2654,433272,"64de7c1e7248d561a0bfd9d6",1,0,0,7,1,22
"962","57becf0ef93a2e0001ce7ce4","pog",335,327,2,358,2933,436208,"64de7c1e7248d561a0bfd9d6",1,0,0,7,2,23
"963","57becf0ef93a2e0001ce7ce4","pog",318,340,2,342,3342,439552,"64de7c1e7248d561a0bfd9d6",1,0,0,7,3,24
"964","57becf0ef93a2e0001ce7ce4","pog",302,350,2,335,2773,442327,"64de7c1e7248d561a0bfd9d6",1,0,0,7,4,33
"965","57becf0ef93a2e0001ce7ce4","pog",308,330,2,338,3055,445384,"64de7c1e7248d561a0bfd9d6",1,0,0,7,5,30
"966","57becf0ef93a2e0001ce7ce4","pog",325,385,2,358,3702,449088,"64de7c1e7248d561a0bfd9d6",1,0,0,7,6,33
"967","57becf0ef93a2e0001ce7ce4","pog",338,376,2,368,3534,452624,"64de7c1e7248d561a0bfd9d6",1,0,0,7,7,30
"968","57becf0ef93a2e0001ce7ce4","pog",272,370,2,302,4648,457272,"64de7c1e7248d561a0bfd9d6",1,0,0,7,8,30
"969","57becf0ef93a2e0001ce7ce4","pog",343,361,2,362,1966,459241,"64de7c1e7248d561a0bfd9d6",1,0,0,7,9,19
"970","57becf0ef93a2e0001ce7ce4","pog",286,364,2,302,4230,463473,"64de7c1e7248d561a0bfd9d6",1,0,0,7,10,16
"971","57becf0ef93a2e0001ce7ce4","pog",332,376,2,349,2822,466297,"64de7c1e7248d561a0bfd9d6",1,0,0,7,11,17
"972","57becf0ef93a2e0001ce7ce4","pog",308,308,2,324,2030,468329,"64de7c1e7248d561a0bfd9d6",1,0,0,7,12,16
"973","57becf0ef93a2e0001ce7ce4","pog",311,297,2,335,2123,470457,"64de7c1e7248d561a0bfd9d6",1,0,0,7,13,24
"974","57becf0ef93a2e0001ce7ce4","pog",336,304,2,360,2800,473257,"64de7c1e7248d561a0bfd9d6",1,0,0,7,14,24
"975","57becf0ef93a2e0001ce7ce4","pog",355,357,2,372,1463,474722,"64de7c1e7248d561a0bfd9d6",1,0,0,7,15,17
"976","57becf0ef93a2e0001ce7ce4","pz",28,40,2,29,2999,497883,"64de7c1e7248d561a0bfd9d6",2,NA,NA,7,1,0.0344827586206897
"977","57becf0ef93a2e0001ce7ce4","pz",47,43,2,53,2918,500803,"64de7c1e7248d561a0bfd9d6",2,NA,NA,7,2,0.113207547169811
"978","57becf0ef93a2e0001ce7ce4","pz",48,40,2,54,2615,503420,"64de7c1e7248d561a0bfd9d6",2,NA,NA,7,3,0.111111111111111
"979","57becf0ef93a2e0001ce7ce4","pz",18,24,2,21,3070,506492,"64de7c1e7248d561a0bfd9d6",2,NA,NA,7,4,0.142857142857143
"980","57becf0ef93a2e0001ce7ce4","pz",33,55,2,36,3390,509884,"64de7c1e7248d561a0bfd9d6",2,NA,NA,7,5,0.0833333333333333
"981","57becf0ef93a2e0001ce7ce4","pz",29,34,2,26,3280,513165,"64de7c1e7248d561a0bfd9d6",2,NA,NA,7,6,-0.115384615384615
"982","57becf0ef93a2e0001ce7ce4","pz",45,36,2,57,2805,515973,"64de7c1e7248d561a0bfd9d6",2,NA,NA,7,7,0.210526315789474
"983","57becf0ef93a2e0001ce7ce4","pz",31,25,2,34,2414,518388,"64de7c1e7248d561a0bfd9d6",2,NA,NA,7,8,0.0882352941176471
"984","57becf0ef93a2e0001ce7ce4","pz",44,27,2,49,3167,521557,"64de7c1e7248d561a0bfd9d6",2,NA,NA,7,9,0.102040816326531
"985","57becf0ef93a2e0001ce7ce4","pz",44,25,2,55,3606,525165,"64de7c1e7248d561a0bfd9d6",2,NA,NA,7,10,0.2
"986","57becf0ef93a2e0001ce7ce4","pz",32,24,2,36,2856,528021,"64de7c1e7248d561a0bfd9d6",2,NA,NA,7,11,0.111111111111111
"987","57becf0ef93a2e0001ce7ce4","pz",39,55,2,46,4360,532382,"64de7c1e7248d561a0bfd9d6",2,NA,NA,7,12,0.152173913043478
"988","57becf0ef93a2e0001ce7ce4","pz",33,51,2,32,3083,535470,"64de7c1e7248d561a0bfd9d6",2,NA,NA,7,13,-0.03125
"989","57becf0ef93a2e0001ce7ce4","pz",35,54,2,44,2821,538294,"64de7c1e7248d561a0bfd9d6",2,NA,NA,7,14,0.204545454545455
"990","57becf0ef93a2e0001ce7ce4","pz",42,42,2,47,3039,541334,"64de7c1e7248d561a0bfd9d6",2,NA,NA,7,15,0.106382978723404
"991","57becf0ef93a2e0001ce7ce4","eb",45,30,1,52,3370,564487,"64de7c1e7248d561a0bfd9d6",2,0,0,7,1,0.134615384615385
"992","57becf0ef93a2e0001ce7ce4","eb",41,51,1,46,2480,566968,"64de7c1e7248d561a0bfd9d6",2,0,0,7,2,0.108695652173913
"993","57becf0ef93a2e0001ce7ce4","eb",34,29,1,38,4115,571088,"64de7c1e7248d561a0bfd9d6",2,0,0,7,3,0.105263157894737
"994","57becf0ef93a2e0001ce7ce4","eb",25,27,1,28,2479,573569,"64de7c1e7248d561a0bfd9d6",2,0,0,7,4,0.107142857142857
"995","57becf0ef93a2e0001ce7ce4","eb",26,25,1,31,2071,575641,"64de7c1e7248d561a0bfd9d6",2,0,0,7,5,0.161290322580645
"996","57becf0ef93a2e0001ce7ce4","eb",36,33,1,42,3223,578866,"64de7c1e7248d561a0bfd9d6",2,0,0,7,6,0.142857142857143
"997","57becf0ef93a2e0001ce7ce4","eb",40,29,1,46,2934,581801,"64de7c1e7248d561a0bfd9d6",2,0,0,7,7,0.130434782608696
"998","57becf0ef93a2e0001ce7ce4","eb",47,28,1,52,4038,585843,"64de7c1e7248d561a0bfd9d6",2,0,0,7,8,0.0961538461538462
"999","57becf0ef93a2e0001ce7ce4","eb",28,43,1,31,4429,590273,"64de7c1e7248d561a0bfd9d6",2,0,0,7,9,0.0967741935483871
"1000","57becf0ef93a2e0001ce7ce4","eb",39,45,1,45,3840,594115,"64de7c1e7248d561a0bfd9d6",2,0,0,7,10,0.133333333333333
"1001","57becf0ef93a2e0001ce7ce4","eb",34,28,1,37,1763,595882,"64de7c1e7248d561a0bfd9d6",2,0,0,7,11,0.0810810810810811
"1002","57becf0ef93a2e0001ce7ce4","eb",23,38,1,26,4335,600219,"64de7c1e7248d561a0bfd9d6",2,0,0,7,12,0.115384615384615
"1003","57becf0ef93a2e0001ce7ce4","eb",34,36,1,41,3527,603746,"64de7c1e7248d561a0bfd9d6",2,0,0,7,13,0.170731707317073
"1004","57becf0ef93a2e0001ce7ce4","eb",35,51,1,40,4975,608723,"64de7c1e7248d561a0bfd9d6",2,0,0,7,14,0.125
"1005","57becf0ef93a2e0001ce7ce4","eb",22,32,1,24,3526,612251,"64de7c1e7248d561a0bfd9d6",2,0,0,7,15,0.0833333333333333
"1006","57becf0ef93a2e0001ce7ce4","zol",1.24,-0.14,1,NA,3647,629220,"64de7c1e7248d561a0bfd9d6",2,-14,4,7,1,1.24
"1007","57becf0ef93a2e0001ce7ce4","zol",1.31,0.19,1,NA,4734,633957,"64de7c1e7248d561a0bfd9d6",2,10,-27,7,2,1.31
"1008","57becf0ef93a2e0001ce7ce4","zol",1.3,0.5,1,NA,5507,639468,"64de7c1e7248d561a0bfd9d6",2,2,17,7,3,1.3
"1009","57becf0ef93a2e0001ce7ce4","zol",1.21,-0.51,1,NA,5902,645373,"64de7c1e7248d561a0bfd9d6",2,-18,-16,7,4,1.21
"1010","57becf0ef93a2e0001ce7ce4","zol",0.81,0.19,1,NA,7151,652525,"64de7c1e7248d561a0bfd9d6",2,7,-27,7,5,0.81
"1011","57becf0ef93a2e0001ce7ce4","zol",0.65,-0.05,1,NA,5523,658054,"64de7c1e7248d561a0bfd9d6",2,14,-21,7,6,0.65
"1012","57becf0ef93a2e0001ce7ce4","zol",0.81,0.09,1,NA,5078,663134,"64de7c1e7248d561a0bfd9d6",2,9,-18,7,7,0.81
"1013","57becf0ef93a2e0001ce7ce4","zol",0.98,0.12,1,NA,3407,666544,"64de7c1e7248d561a0bfd9d6",2,-9,21,7,8,0.98
"1014","57becf0ef93a2e0001ce7ce4","zol",0.34,-0.74,1,NA,6964,673512,"64de7c1e7248d561a0bfd9d6",2,-10,-22,7,9,0.34
"1015","57becf0ef93a2e0001ce7ce4","zol",0.68,-0.58,1,NA,7662,681175,"64de7c1e7248d561a0bfd9d6",2,-3,23,7,10,0.68
"1016","57becf0ef93a2e0001ce7ce4","zol",1.14,-0.54,1,NA,3551,684729,"64de7c1e7248d561a0bfd9d6",2,-11,30,7,11,1.14
"1017","57becf0ef93a2e0001ce7ce4","zol",0.21,0.39,1,NA,7781,692513,"64de7c1e7248d561a0bfd9d6",2,-9,-21,7,12,0.21
"1018","57becf0ef93a2e0001ce7ce4","zol",1.15,-0.55,1,NA,3558,696073,"64de7c1e7248d561a0bfd9d6",2,1,16,7,13,1.15
"1019","57becf0ef93a2e0001ce7ce4","zol",0.47,0.43,1,NA,2772,698849,"64de7c1e7248d561a0bfd9d6",2,-18,-15,7,14,0.47
"1020","57becf0ef93a2e0001ce7ce4","zol",1.05,0.65,1,NA,3615,702465,"64de7c1e7248d561a0bfd9d6",2,-26,2,7,15,1.05
"1021","57becf0ef93a2e0001ce7ce4","br",-13,-16,1,213,2613,712522,"64de7c1e7248d561a0bfd9d6",2,9,-10,7,1,0.0610328638497653
"1022","57becf0ef93a2e0001ce7ce4","br",-13,10,1,293,3439,715962,"64de7c1e7248d561a0bfd9d6",2,-13,-16,7,2,0.0443686006825939
"1023","57becf0ef93a2e0001ce7ce4","br",-14,25,1,201,5030,720994,"64de7c1e7248d561a0bfd9d6",2,-14,-4,7,3,0.0696517412935323
"1024","57becf0ef93a2e0001ce7ce4","br",-10,-8,1,223,1624,722619,"64de7c1e7248d561a0bfd9d6",2,-28,15,7,4,0.0448430493273543
"1025","57becf0ef93a2e0001ce7ce4","br",-17,4,1,297,4933,727555,"64de7c1e7248d561a0bfd9d6",2,-6,-29,7,5,0.0572390572390572
"1026","57becf0ef93a2e0001ce7ce4","br",-16,-21,1,277,4359,731915,"64de7c1e7248d561a0bfd9d6",2,14,-13,7,6,0.0577617328519856
"1027","57becf0ef93a2e0001ce7ce4","br",-12,-26,1,254,3207,735123,"64de7c1e7248d561a0bfd9d6",2,20,29,7,7,0.047244094488189
"1028","57becf0ef93a2e0001ce7ce4","br",-14,22,1,221,3631,738756,"64de7c1e7248d561a0bfd9d6",2,4,-23,7,8,0.0633484162895928
"1029","57becf0ef93a2e0001ce7ce4","br",-18,0,1,299,2581,741340,"64de7c1e7248d561a0bfd9d6",2,-18,28,7,9,0.0602006688963211
"1030","57becf0ef93a2e0001ce7ce4","br",-16,23,1,224,4014,745357,"64de7c1e7248d561a0bfd9d6",2,-3,13,7,10,0.0714285714285714
"1031","57becf0ef93a2e0001ce7ce4","br",-14,-3,1,281,2030,747388,"64de7c1e7248d561a0bfd9d6",2,-19,-6,7,11,0.0498220640569395
"1032","57becf0ef93a2e0001ce7ce4","br",-18,-9,1,205,1808,749197,"64de7c1e7248d561a0bfd9d6",2,-28,28,7,12,0.0878048780487805
